time,accx,accy,accz
5,  -203,   410,   408
12,  -239,   462,   410
18,  -226,   447,   410
23,  -211,   437,   415
29,  -209,   417,   413
37,  -203,   422,   425
48,  -235,   431,   425
57,  -251,   413,   406
68,  -254,   389,   402
78,  -278,   378,   404
87,  -293,   365,   414
98,  -265,   369,   416
107,  -228,   377,   407
118,  -215,   373,   400
127,  -200,   379,   390
138,  -195,   388,   386
148,  -200,   379,   398
157,  -223,   363,   401
168,  -249,   343,   390
177,  -261,   351,   386
188,  -259,   357,   392
198,  -241,   352,   393
207,  -224,   350,   396
217,  -231,   343,   404
228,  -246,   342,   410
237,  -257,   330,   406
248,  -270,   304,   399
257,  -273,   294,   398
268,  -284,   300,   402
277,  -307,   327,   412
287,  -323,   349,   415
298,  -315,   347,   417
307,  -298,   320,   411
318,  -283,   286,   409
327,  -277,   265,   404
338,  -274,   279,   407
347,  -291,   314,   417
357,  -303,   354,   425
368,  -298,   372,   422
377,  -283,   361,   429
388,  -271,   346,   427
397,  -259,   335,   426
408,  -263,   332,   427
417,  -281,   339,   424
428,  -283,   381,   428
437,  -244,   421,   429
447,  -181,   438,   420
458,  -136,   444,   409
467,  -140,   462,   406
478,  -176,   478,   408
487,  -221,   476,   410
498,  -276,   433,   416
507,  -324,   385,   424
517,  -348,   338,   431
528,  -347,   308,   430
537,  -329,   266,   419
548,  -293,   190,   406
557,  -266,   181,   408
568,  -272,   225,   414
577,  -265,   282,   416
587,  -281,   342,   418
598,  -292,   363,   424
607,  -264,   361,   426
618,  -232,   353,   420
627,  -226,   346,   418
638,  -240,   348,   428
647,  -256,   371,   435
656,  -271,   384,   438
667,  -285,   397,   441
677,  -289,   424,   443
688,  -276,   427,   435
697,  -253,   382,   417
708,  -220,   328,   400
717,  -212,   281,   395
726,  -221,   272,   403
737,  -243,   301,   415
747,  -264,   333,   414
758,  -268,   351,   422
767,  -270,   357,   430
778,  -272,   350,   422
787,  -282,   339,   419
797,  -286,   342,   422
807,  -289,   379,   428
817,  -281,   408,   431
826,  -252,   411,   425
837,  -226,   372,   409
846,  -213,   318,   407
857,  -206,   281,   402
867,  -211,   265,   400
878,  -240,   269,   407
887,  -282,   303,   415
897,  -316,   349,   424
906,  -328,   403,   431
917,  -321,   444,   433
926,  -299,   421,   432
938,  -262,   357,   427
947,  -234,   296,   407
956,  -221,   259,   397
967,  -231,   269,   398
976,  -253,   305,   406
987,  -279,   345,   420
997,  -297,   389,   426
1006,  -302,   417,   432
1017,  -283,   399,   427
1026,  -256,   358,   415
1037,  -248,   326,   413
1047,  -250,   310,   410
1058,  -259,   313,   414
1067,  -263,   325,   423
1076,  -269,   348,   433
1087,  -263,   363,   427
1097,  -259,   352,   417
1106,  -271,   321,   414
1117,  -282,   303,   418
1126,  -275,   310,   416
1137,  -270,   313,   414
1146,  -269,   328,   417
1157,  -250,   347,   419
1167,  -225,   346,   420
1176,  -222,   322,   421
1187,  -239,   313,   426
1196,  -258,   339,   418
1207,  -269,   389,   425
1216,  -294,   419,   425
1227,  -299,   397,   422
1237,  -279,   348,   409
1246,  -259,   302,   404
1257,  -235,   278,   403
1266,  -229,   280,   397
1277,  -234,   309,   408
1286,  -259,   350,   412
1297,  -267,   418,   407
1306,  -281,   466,   416
1316,  -318,   428,   422
1327,  -350,   267,   419
1336,  -379,   108,   409
1347,  -363,     9,   395
1356,  -359,   -54,   404
1367,  -477,   109,   429
1376,  -523,   430,   473
1386,  -545,   860,   492
1397,  -624,  1235,   484
1406,  -686,  1408,   502
1417,  -633,  1539,   514
1426,  -498,  1582,   580
1437,  -634,  1121,   519
1446, -1393,    12,     8
1455, -2335,  -325,  -363
1466, -2334,  -636,   115
1476, -1747, -1049,   201
1487, -1421, -1119,   -30
1497, -1438,  -893,  -121
1506, -1652,  -657,   -41
1516, -1865,  -473,    12
1527, -1868,  -335,    68
1536, -1710,  -127,   160
1547, -1465,    82,   377
1556, -1251,   316,   572
1565, -1061,   652,   676
1576,  -907,  1109,   720
1586,  -840,  1561,   893
1597, -1040,  2036,  1050
1606, -1317,  2266,  1221
1616, -1516,  1953,  1351
1627, -1722,  1423,  1268
1636, -1824,   890,  1006
1645, -1609,   411,   631
1656, -1144,   -28,   202
1666,  -646,  -331,  -242
1676,  -223,  -407,  -636
1686,   103,  -352,  -927
1697,   366,  -199, -1079
1706,   523,    83, -1081
1715,   520,   372,  -977
1726,   413,   551,  -795
1735,   252,   565,  -562
1746,   109,   315,  -360
1756,    14,  -107,  -230
1767,    31,  -623,  -169
1776,   137, -1048,  -110
1785,   264, -1280,  -165
1796,   398, -1338,  -358
1805,   579, -1243,  -594
1817,   726, -1044,  -725
1826,   681,  -766,  -680
1835,   499,  -508,  -489
1846,   279,  -339,  -231
1855,    56,  -231,    13
1866,   -61,  -205,   237
1876,  -135,  -153,   440
1887,  -288,    -2,   567
1896,  -471,   160,   638
1905,  -509,   314,   692
1916,  -420,   409,   665
1925,  -272,   438,   535
1936,   -42,   434,   312
1946,   279,   383,    26
1955,   655,   266,  -256
1966,   956,    85,  -465
1975,  1171,  -144,  -511
1986,  1160,  -339,  -382
1995,   951,  -542,  -109
2007,   651,  -704,   252
2016,   342,  -793,   616
2025,    55,  -803,   874
2036,  -156,  -732,   969
2046,  -241,  -604,   919
2055,  -247,  -470,   771
2066,  -222,  -364,   610
2075,  -213,  -308,   447
2086,  -209,  -296,   275
2095,  -171,  -291,   123
2106,  -142,  -265,     8
2116,  -161,  -221,   -71
2125,  -207,  -170,  -127
2136,  -257,  -129,  -148
2146,  -296,   -94,  -130
2155,  -335,   -80,   -95
2166,  -361,   -96,   -22
2175,  -375,   -65,    58
2186,  -380,   -31,    98
2196,  -355,   -36,   133
2205,  -311,   -41,   169
2216,  -282,   -32,   230
2226,  -292,   -12,   328
2235,  -329,    12,   475
2246,  -385,    47,   612
2255,  -409,   103,   715
2266,  -367,   158,   715
2275,  -239,   233,   619
2286,   -12,   247,   464
2296,   221,   181,   285
2305,   410,   109,   145
2316,   544,    88,    59
2325,   600,    65,    20
2335,   616,   -18,    51
2346,   583,   -74,   135
2355,   543,   -86,   189
2366,   552,   -67,   183
2375,   608,   -35,   147
2385,   650,    37,   117
2396,   675,    97,    90
2405,   615,   119,    73
2416,   586,    48,    89
2425,   550,     3,   110
2435,   476,   -55,   158
2446,   350,  -183,   260
2455,   193,  -265,   400
2466,   -33,  -216,   483
2475,  -197,  -169,   487
2486,  -229,  -125,   391
2495,  -201,   -34,   201
2505,  -147,   100,   -21
2516,   -33,   235,  -299
2525,    73,   345,  -501
2534,    54,   437,  -557
2545,  -129,   467,  -476
2555,  -381,   460,  -326
2565,  -606,   406,  -260
2575,  -648,   209,  -291
2586,  -589,     4,  -286
2595,  -623,  -160,  -201
2604,  -777,  -298,     0
2616,  -968,  -469,   258
2625, -1132,  -614,   510
2634, -1321,  -590,   694
2645, -1411,  -528,   710
2655, -1309,  -442,   621
2666, -1139,  -290,   490
2675, -1004,   -89,   346
2684,  -933,   131,   244
2695,  -912,   362,   147
2704,  -894,   567,    72
2715,  -909,   757,    48
2725, -1024,   921,    14
2736, -1149,  1053,   -27
2745, -1226,  1139,  -117
2754, -1211,  1178,  -262
2765, -1144,  1175,  -394
2774, -1104,  1058,  -469
2785, -1136,   825,  -414
2795, -1250,   517,  -279
2806, -1374,   198,   -81
2815, -1483,   -11,   120
2825, -1531,  -165,   272
2835, -1511,  -303,   383
2845, -1465,  -397,   462
2854, -1420,  -464,   484
2865, -1359,  -558,   472
2874, -1294,  -571,   441
2885, -1228,  -448,   381
2894, -1182,  -233,   349
2905, -1191,    41,   332
2915, -1185,   360,   334
2924, -1129,   608,   336
2935, -1118,   813,   294
2944, -1154,   916,   295
2955, -1215,   878,   387
2965, -1351,   696,   607
2974, -1597,   449,   923
2985, -1895,   192,  1234
2994, -2084,   -45,  1474
3005, -2178,  -272,  1634
3014, -2211,  -488,  1658
3024, -2160,  -687,  1579
3035, -2061,  -853,  1420
3044, -1914,  -972,  1251
3055, -1766, -1025,  1077
3065, -1617, -1013,   854
3074, -1427,  -961,   643
3085, -1264,  -907,   469
3094, -1172,  -851,   319
3105, -1118,  -765,   211
3114, -1075,  -672,   125
3124, -1039,  -613,    57
3135,  -998,  -562,    12
3144,  -992,  -477,   -41
3155,  -969,  -322,  -123
3164,  -898,  -149,  -217
3174,  -774,  -125,  -336
3185,  -636,  -384,  -408
3194,  -417,  -801,  -350
3204,  -252, -1045,  -213
3215,  -205, -1053,   -28
3224,  -232,  -771,   223
3235,  -353,  -273,   455
3244,  -496,   256,   674
3254,  -593,   667,   931
3265,  -773,   990,  1074
3274,  -918,  1258,  1096
3285,  -951,  1337,  1055
3294,  -922,  1150,  1003
3305,  -881,   800,   966
3314,  -886,   277,   957
3324,  -911,  -329,  1030
3335, -1000,  -787,  1138
3344, -1133,  -939,  1178
3354, -1255,  -821,  1089
3365, -1271,  -624,   872
3374, -1252,  -660,   568
3385, -1196,  -961,   263
3394, -1056, -1326,     6
3405,  -881, -1652,  -213
3414,  -739, -1856,  -417
3424,  -607, -1881,  -546
3435,  -527, -1773,  -578
3444,  -543, -1627,  -601
3453,  -634, -1426,  -582
3464,  -810, -1412,  -360
3474, -1057, -1510,   105
3485, -1445, -1433,   589
3494, -1746, -1171,   920
3503, -1777,  -930,   988
3514, -1612,  -741,   836
3524, -1314,  -644,   583
3535,  -948,  -748,   392
3544,  -736,  -837,   327
3553,  -812,  -744,   308
3564, -1038,  -438,   360
3574, -1228,    21,   428
3584, -1349,   419,   447
3594, -1316,   466,   425
3605, -1261,   264,   365
3614, -1180,   -50,   124
3623,  -980,  -257,  -199
3635,  -633,  -302,  -519
3644,  -288,   -93,  -793
3653,   -11,   259, -1030
3664,   174,   478, -1184
3674,   329,   459, -1219
3685,   426,   290, -1089
3694,   445,    29,  -894
3703,   336,   -95,  -770
3714,   245,   -56,  -732
3723,   210,    85,  -763
3734,   220,   203,  -785
3743,   254,   100,  -729
3755,   330,  -132,  -649
3764,   380,  -319,  -554
3773,   375,  -278,  -491
3784,   376,    52,  -449
3794,   430,   567,  -304
3805,   419,  1069,   -91
3814,   270,  1400,   116
3823,    61,  1436,   230
3834,   -92,  1182,   213
3844,   -69,   884,    96
3853,     1,   794,   -75
3864,    57,   821,  -251
3873,   144,   983,  -371
3883,   255,  1187,  -431
3894,   386,  1352,  -403
3903,   454,  1401,  -356
3914,   475,  1325,  -237
3923,   400,  1314,   -20
3934,   190,  1399,   243
3944,   -90,  1552,   499
3953,  -347,  1676,   664
3964,  -401,  1722,   834
3973,  -364,  1817,   977
3984,  -359,  1848,  1044
3994,  -298,  1795,  1110
4003,  -227,  1691,  1126
4014,  -195,  1690,  1123
4023,  -229,  1611,  1059
4034,  -249,  1362,   971
4044,  -205,  1120,   900
4053,  -142,   931,   867
4064,  -124,   900,   868
4073,  -156,   985,   902
4084,  -219,  1114,   954
4093,  -312,  1300,   973
4104,  -377,  1479,   930
4113,  -345,  1674,   864
4123,  -268,  1836,   808
4134,  -241,  1875,   769
4143,  -239,  1753,   737
4154,  -220,  1411,   704
4163,  -180,  1015,   638
4174,  -110,   686,   596
4183,   -93,   549,   590
4193,  -135,   599,   623
4204,  -179,   660,   691
4213,  -266,   697,   798
4224,  -366,   754,   885
4233,  -422,   749,   906
4243,  -394,   681,   820
4254,  -266,   575,   692
4263,  -120,   490,   552
4273,   -13,   458,   419
4284,    44,   414,   328
4293,    45,   359,   301
4304,   -29,   400,   354
4313,  -144,   511,   419
4322,  -215,   567,   466
4333,  -223,   573,   503
4343,  -255,   594,   514
4352,  -270,   628,   449
4363,  -183,   618,   328
4373,   -76,   582,   172
4384,    15,   536,    69
4393,    51,   502,   104
4404,   -40,   462,   224
4413,  -153,   388,   382
4422,  -229,   305,   523
4433,  -249,   240,   625
4443,  -239,   242,   709
4454,  -251,   312,   756
4463,  -224,   373,   729
4473,  -115,   373,   653
4484,     9,   344,   589
4493,    98,   321,   581
4502,    95,   311,   665
4513,    22,   279,   799
4523,   -68,   230,   926
4534,  -123,   212,   987
4543,  -109,   223,   980
4552,   -48,   242,   934
4563,    -9,   291,   882
4573,    -4,   371,   827
4582,    29,   432,   801
4593,    30,   504,   798
4602,   -20,   578,   788
4613,   -69,   620,   781
4623,   -86,   597,   743
4634,   -98,   515,   663
4643,  -118,   394,   596
4652,  -210,   263,   574
4663,  -369,   141,   577
4672,  -554,    70,   584
4683,  -797,    18,   594
4693, -1155,   -51,   567
4702, -1580,  -116,   524
4713, -2050,  -199,   511
4723, -2532,  -253,   605
4733, -3033,  -236,   860
4743, -3621,  -282,  1215
4752, -4212,  -309,  1595
4763, -4681,  -294,  1843
4773, -4863,  -194,  1777
4782, -4654,    41,  1423
4793, -4230,   329,   858
4802, -3718,   590,   231
4813, -3061,   877,  -224
4823, -2459,  1192,  -466
4832, -1912,  1521,  -453
4843, -1343,  1867,  -269
4852,  -874,  2124,  -146
4863,  -350,  2200,     2
4873,   159,  2077,   283
4882,   395,  1809,   632
4893,   514,  1653,  1014
4902,   590,  1674,  1228
4913,   750,  1720,  1159
4923,  1032,  1749,   934
4932,  1247,  1627,   581
4943,  1435,  1327,   271
4952,  1596,  1099,   196
4963,  1633,  1084,   297
4973,  1677,  1093,   485
4982,  1802,  1018,   618
4993,  2037,   796,   602
5002,  2358,   455,   391
5012,  2749,   159,    30
5023,  3210,  -131,  -319
5032,  3574,  -495,  -445
5043,  3536,  -847,  -214
5052,  3043, -1112,   357
5062,  2327, -1253,  1042
5073,  1597, -1296,  1622
5082,  1042, -1265,  1964
5093,   752, -1124,  2020
5102,   661,  -901,  1841
5113,   624,  -655,  1512
5122,   636,  -361,  1111
5132,   745,   -13,   735
5143,   850,   346,   467
5152,   846,   680,   385
5163,   652,   944,   489
5172,   309,  1084,   721
5182,   -50,  1092,   996
5193,  -352,  1069,  1211
5202,  -555,  1100,  1292
5213,  -620,  1136,  1232
5222,  -586,  1069,  1083
5232,  -517,   862,   891
5243,  -412,   644,   768
5252,  -369,   450,   709
5263,  -398,   296,   733
5272,  -468,   193,   837
5282,  -604,   125,   951
5293,  -755,   129,  1016
5302,  -823,   167,   990
5312,  -793,   220,   886
5323,  -728,   297,   755
5332,  -667,   349,   645
5341,  -619,   358,   591
5352,  -584,   400,   579
5362,  -532,   482,   577
5373,  -487,   552,   600
5382,  -492,   581,   655
5391,  -543,   572,   695
5402,  -552,   567,   693
5412,  -503,   567,   632
5423,  -417,   556,   557
5432,  -368,   556,   531
5441,  -382,   571,   561
5452,  -406,   622,   637
5462,  -463,   689,   719
5472,  -513,   739,   747
5482,  -502,   707,   736
5493,  -470,   623,   701
5502,  -447,   561,   684
5511,  -468,   567,   679
5522,  -490,   592,   669
5532,  -493,   639,   677
5543,  -533,   710,   668
5552,  -563,   806,   624
5561,  -549,   838,   546
5572,  -537,   872,   482
5581,  -586,   964,   428
5592,  -617,  1089,   375
5602,  -603,  1222,   329
5611,  -597,  1405,   267
5622,  -562,  1689,   242
5631,  -565,  2080,   248
5642,  -601,  2475,   272
5652,  -625,  2821,   329
5661,  -649,  3099,   375
5672,  -708,  3278,   421
5681,  -824,  3361,   521
5692,  -989,  3502,   688
5701, -1208,  3667,   803
5712, -1405,  3812,   856
5722, -1485,  3776,   845
5731, -1439,  3452,   779
5742, -1356,  3007,   659
5751, -1270,  2647,   479
5762, -1181,  2331,   242
5772, -1058,  1898,    56
5782,  -992,  1393,    -9
5792, -1034,   615,    28
5801, -1117,  -256,   173
5812, -1197, -1120,   375
5822, -1282, -1780,   584
5831, -1379, -2159,   748
5842, -1420, -2235,   799
5851, -1377, -2136,   656
5862, -1199, -2132,   289
5871,  -915, -2244,  -168
5882,  -673, -2490,  -664
5892,  -438, -2736, -1029
5901,  -333, -2950, -1139
5912,  -505, -3104,  -890
5921,  -929, -3221,  -349
5932, -1532, -3130,   314
5941, -2196, -2864,   910
5951, -2688, -2496,  1413
5962, -2960, -2139,  1736
5971, -3031, -1798,  1810
5982, -2930, -1471,  1672
5991, -2723, -1293,  1408
6001, -2459, -1321,  1131
6012, -2209, -1479,   936
6021, -2092, -1577,   835
6032, -2050, -1587,   795
6041, -2003, -1524,   766
6051, -1955, -1364,   711
6062, -1865, -1098,   602
6071, -1714,  -832,   440
6082, -1525,  -639,   262
6091, -1377,  -547,    97
6101, -1280,  -552,   -25
6112, -1240,  -618,   -83
6121, -1238,  -749,   -80
6132, -1267,  -848,    -7
6141, -1324,  -861,    40
6151, -1316,  -793,    66
6162, -1248,  -663,    73
6171, -1213,  -499,   100
6182, -1189,  -356,   147
6191, -1182,  -242,   214
6201, -1191,  -140,   268
6210, -1179,   -67,   327
6221, -1161,   -31,   385
6231, -1185,   -11,   446
6242, -1220,    -1,   482
6251, -1212,   -11,   511
6260, -1214,   -73,   500
6271, -1207,  -147,   449
6281, -1155,  -218,   356
6291, -1040,  -327,   245
6301,  -946,  -426,   158
6312,  -922,  -443,   140
6321,  -934,  -389,   181
6331,  -965,  -281,   265
6342, -1024,  -108,   360
6351, -1073,    70,   427
6360, -1085,   200,   447
6371, -1087,   265,   439
6381, -1086,   247,   403
6392, -1069,   143,   369
6401, -1046,    24,   354
6410, -1062,   -60,   365
6421, -1095,   -77,   391
6430, -1120,   -63,   443
6441, -1176,   -17,   503
6451, -1214,    33,   533
6462, -1198,    70,   516
6471, -1134,   111,   468
6480, -1068,   163,   432
6491, -1060,   212,   419
6500, -1086,   250,   431
6511, -1095,   243,   451
6521, -1102,   213,   461
6532, -1112,   193,   459
6541, -1099,   174,   444
6550, -1076,   154,   428
6561, -1048,   141,   402
6571, -1002,   156,   383
6581,  -963,   213,   372
6591,  -931,   285,   364
6600,  -886,   338,   359
6611,  -837,   371,   360
6620,  -760,   393,   385
6631,  -668,   427,   412
6641,  -549,   479,   470
6652,  -397,   543,   574
6661,  -253,   614,   704
6670,   -82,   647,   827
6681,   118,   583,   928
6690,   287,   430,  1056
6701,   421,   236,  1242
6711,   507,    84,  1426
6720,   621,    -3,  1532
6731,   850,   -96,  1495
6740,  1159,  -240,  1290
6751,  1541,  -410,   956
6760,  1948,  -546,   524
6771,  2342,  -602,    53
6781,  2680,  -567,  -385
6790,  2841,  -522,  -685
6801,  2755,  -467,  -693
6810,  2355,  -373,  -433
6821,  1763,  -293,   -83
6830,  1263,  -237,   200
6841,   924,  -224,   371
6851,   684,  -149,   389
6860,   439,    64,   227
6871,   262,   315,  -104
6880,   201,   591,  -416
6890,   -38,   659,  -659
6901,  -396,   497,  -702
6910,  -839,   201,  -549
6920, -1374,  -181,  -217
6931, -1987,  -461,   248
6940, -2671,  -629,   665
6951, -3191,  -624,   915
6961, -3386,  -352,   913
6970, -3317,    59,   568
6981, -3035,   422,    -8
6990, -2594,   643,  -654
7001, -2130,   777, -1201
7010, -1878,   838, -1455
7020, -2002,   802, -1288
7031, -2396,   566,  -812
7040, -2883,   252,  -227
7051, -3301,    11,   246
7060, -3473,   -71,   517
7071, -3396,   -28,   553
7080, -3168,    69,   415
7090, -2876,   213,   224
7100, -2586,   354,    74
7110, -2343,   473,    23
7121, -2171,   585,    37
7130, -1971,   691,    90
7141, -1786,   777,   164
7150, -1624,   821,   268
7159, -1467,   812,   381
7170, -1292,   789,   471
7180, -1117,   755,   541
7191,  -941,   716,   606
7200,  -792,   633,   682
7211,  -685,   517,   810
7220,  -654,   394,   984
7229,  -679,   274,  1171
7240,  -714,   185,  1322
7250,  -715,   120,  1420
7261,  -684,    90,  1427
7270,  -595,    59,  1361
7279,  -460,    32,  1233
7290,  -317,    31,  1092
7299,  -194,    40,   961
7310,  -104,    81,   858
7320,   -64,   195,   792
7331,   -71,   340,   761
7340,  -116,   446,   745
7349,  -173,   484,   728
7360,  -225,   445,   694
7370,  -284,   373,   684
7380,  -339,   291,   643
7390,  -332,   201,   560
7399,  -268,   162,   423
7410,  -183,   162,   279
7419,  -127,   170,   192
7430,  -134,   174,   191
7440,  -187,   212,   235
7450,  -261,   269,   284
7460,  -315,   324,   339
7469,  -377,   359,   390
7480,  -407,   370,   409
7489,  -392,   383,   401
7500,  -366,   412,   360
7509,  -342,   443,   331
7520,  -346,   401,   321
7530,  -356,   298,   317
7539,  -344,   203,   352
7550,  -384,   163,   418
7559,  -449,   187,   485
7570,  -510,   297,   540
7580,  -561,   406,   567
7589,  -571,   421,   585
7600,  -570,   390,   588
7609,  -553,   391,   568
7621,  -520,   433,   532
7630,  -488,   491,   498
7639,  -482,   553,   479
7650,  -500,   593,   488
7660,  -537,   627,   517
7669,  -583,   682,   524
7680,  -593,   736,   533
7689,  -609,   723,   527
7700,  -638,   665,   518
7709,  -639,   592,   495
7720,  -604,   513,   447
7730,  -549,   443,   367
7739,  -474,   369,   284
7750,  -392,   278,   235
7759,  -376,   185,   252
7770,  -407,   110,   314
7779,  -454,    56,   397
7789,  -488,    42,   475
7800,  -505,    57,   540
7809,  -519,   107,   582
7820,  -516,   184,   607
7829,  -514,   254,   651
7840,  -541,   287,   712
7849,  -555,   267,   738
7859,  -531,   217,   721
7870,  -479,   162,   674
7879,  -436,   112,   597
7890,  -387,    80,   537
7900,  -344,    64,   508
7909,  -329,    77,   517
7920,  -340,   119,   557
7930,  -385,   188,   614
7939,  -426,   272,   645
7950,  -443,   375,   656
7959,  -462,   471,   671
7969,  -486,   521,   660
7980,  -470,   531,   645
7989,  -443,   550,   613
8000,  -424,   575,   580
8009,  -415,   552,   562
8018,  -411,   467,   550
8029,  -408,   385,   527
8039,  -390,   316,   498
8050,  -358,   293,   474
8059,  -332,   285,   446
8070,  -312,   298,   458
8079,  -333,   322,   508
8088,  -398,   361,   591
8099,  -490,   437,   675
8109,  -549,   511,   732
8120,  -562,   538,   739
8129,  -532,   536,   748
8140,  -522,   504,   751
8149,  -504,   442,   759
8158,  -486,   390,   794
8169,  -507,   363,   853
8179,  -554,   342,   917
8190,  -575,   305,   973
8199,  -579,   274,  1002
8210,  -569,   282,  1010
8219,  -577,   308,  1017
8228,  -585,   299,   995
8239,  -559,   280,   956
8249,  -509,   259,   883
8259,  -437,   213,   812
8269,  -368,   154,   754
8280,  -318,   165,   739
8289,  -308,   204,   776
8298,  -350,   204,   849
8309,  -430,   141,   922
8319,  -494,    56,   970
8329,  -537,    25,   969
8339,  -554,    35,   924
8350,  -558,    97,   848
8359,  -572,   228,   754
8368,  -582,   395,   663
8379,  -594,   545,   614
8388,  -650,   661,   596
8399,  -714,   736,   517
8409,  -666,   765,   342
8418,  -519,   729,    81
8429,  -349,   677,  -182
8439,  -210,   678,  -397
8450,  -109,   721,  -542
8459,   -49,   770,  -601
8468,   -77,   822,  -553
8479,  -161,   856,  -465
8488,  -208,   857,  -408
8499,  -189,   837,  -397
8509,  -138,   787,  -405
8518,  -110,   719,  -390
8529,  -113,   683,  -325
8538,  -158,   662,  -235
8549,  -208,   659,  -168
8558,  -209,   647,  -154
8569,  -162,   592,  -177
8579,  -101,   468,  -157
8588,  -122,   275,   -33
8599,  -232,    17,   166
8608,  -370,  -369,   425
8619,  -501, -1075,   717
8628,  -703, -2150,  1061
8638,  -950, -3455,  1522
8649, -1223, -4955,  2075
8658, -1525, -6466,  2592
8669, -1869, -7681,  2900
8678, -2071, -8581,  2777
8689, -1925, -9007,  2280
8699, -1591, -8639,  1489
8708, -1105, -7446,   682
8719,  -568, -5687,   122
8728,  -131, -3798,   -12
8739,   -90, -2191,   187
8748,  -218, -1131,   510
8758,  -332,  -564,   742
8769,  -452,  -218,   750
8778,  -452,   144,   483
8789,  -282,   769,    73
8798,   -32,  1609,  -404
8809,   271,  2389,  -876
8818,   643,  2974, -1263
8828,   932,  3447, -1498
8839,  1096,  4024, -1582
8848,  1116,  4841, -1452
8859,  1034,  5855, -1218
8868,   791,  6896,  -881
8879,   517,  7620,  -492
8888,   329,  7841,  -146
8898,   104,  7742,   258
8909,  -308,  7430,   634
8918,  -660,  6777,  1045
8929,  -938,  6013,  1543
8938, -1430,  5504,  2258
8949, -3730,  5342,  4668
8958, -4091,  5454,  4749
8968, -2084,  5394,  3353
8979, -1046,  4715,  2682
8988, -1364,  3851,  2625
8998, -1675,  3144,  2799
9009, -1629,  2614,  2683
9018, -1250,  2262,  2229
9027,  -693,  2005,  1663
9038,  -216,  1734,  1095
9048,   176,  1476,   643
9059,   434,  1250,   373
9068,   593,  1062,   251
9078,   647,   898,   244
9089,   629,   684,   303
9098,   572,   481,   394
9109,   488,   351,   477
9118,   427,   260,   527
9127,   403,   268,   533
9138,   379,   390,   523
9148,   374,   552,   489
9159,   418,   639,   444
9168,   455,   675,   435
9177,   441,   763,   448
9188,   373,   842,   500
9197,   248,   830,   588
9208,   109,   835,   661
9218,     6,   843,   722
9229,   -27,   799,   735
9238,   -27,   768,   708
9247,   -23,   764,   676
9258,   -45,   779,   659
9267,   -96,   822,   649
9278,  -138,   864,   639
9288,  -146,   860,   643
9297,  -174,   904,   658
9308,  -215,   978,   620
9317,  -181,   986,   550
9328,   -98,   957,   519
9337,   -48,   942,   487
9348,   -10,   930,   443
9358,    64,   889,   389
9367,   138,   872,   330
9378,   199,   909,   261
9387,   262,   931,   188
9398,   295,   866,   173
9408,   232,   762,   241
9418,    85,   681,   364
9428,   -90,   589,   470
9437,  -180,   455,   460
9448,  -131,   336,   370
9457,     3,   305,   277
9467,    88,   374,   218
9478,   137,   496,   225
9487,   161,   658,   268
9498,   149,   820,   397
9508,    25,   981,   646
9517,  -192,  1132,   907
9528,  -380,  1203,  1099
9537,  -460,  1194,  1175
9548,  -460,  1148,  1139
9557,  -430,  1053,  1059
9568,  -419,   957,  1006
9578,  -516,   867,   980
9587,  -673,   763,  1002
9598,  -869,   656,  1087
9607, -1251,   479,  1160
9618, -1660,   315,  1254
9627, -2091,   202,  1346
9638, -2537,   104,  1434
9648, -2734,    67,  1554
9657, -2712,  -119,  1584
9668, -2572,  -456,  1466
9677, -2402,  -716,  1309
9688, -2412,  -782,  1224
9697, -2673,  -629,  1169
9707, -3013,  -275,  1051
9718, -3241,   275,   844
9727, -3196,   979,   575
9738, -2949,  1546,   229
9747, -2575,  1905,  -195
9758, -1966,  2291,  -469
9767, -1399,  2690,  -660
9777,  -882,  2889,  -772
9788,  -321,  2810,  -714
9797,    71,  2452,  -626
9808,   425,  2006,  -496
9817,   731,  1616,  -360
9828,   887,  1209,  -315
9837,  1140,   940,  -189
9847,  1324,   844,   -88
9858,  1406,   737,  -163
9867,  1667,   762,  -184
9878,  1911,  1006,  -184
9887,  2163,  1230,  -130
9896,  2488,  1423,   136
9907,  2607,  1491,   445
9917,  2661,  1436,   680
9928,  2753,  1365,   734
9937,  2859,  1288,   559
9948,  3035,  1136,   336
9957,  3129,   715,   285
9967,  2940,   226,   562
9978,  2441,  -142,  1033
9987,  1850,  -367,  1432
9998,  1468,  -520,  1613
10007,  1358,  -540,  1613
10016,  1260,  -374,  1449
10027,  1204,  -165,  1158
10037,  1312,   125,   836
10048,  1495,   464,   520
10057,  1707,   772,   319
10066,  1773,   991,   299
10077,  1601,  1097,   503
10087,  1238,  1192,   769
10098,   803,  1268,   839
10107,   651,  1260,   727
10118,   721,  1160,   614
10127,   624,   954,   562
10136,   -18,   706,  1264
10147,  -279,   619,  1283
10157,   -92,   675,  1179
10168,   -40,   663,   998
10177,  -207,   646,   937
10186,  -358,   702,   969
10197,  -486,   821,   941
10206,  -504,   898,   770
10217,  -344,   873,   495
10227,  -119,   764,   211
10238,    22,   674,    68
10247,   -34,   649,    73
10256,  -175,   600,   160
10267,  -267,   521,   263
10277,  -308,   431,   335
10288,  -336,   356,   349
10297,  -339,   343,   414
10306,  -397,   455,   508
10317,  -460,   567,   559
10326,  -415,   613,   532
10337,  -265,   644,   445
10347,  -126,   722,   350
10356,   -53,   807,   273
10367,   -14,   838,   236
10376,   -19,   809,   267
10387,  -100,   771,   393
10397,  -260,   738,   551
10407,  -387,   701,   662
10417,  -410,   668,   701
10426,  -373,   672,   684
10437,  -333,   701,   571
10446,  -220,   711,   346
10457,     0,   689,    86
10467,   183,   688,  -119
10476,   202,   681,  -188
10487,   100,   747,   -42
10496,  -198,   991,   215
10507,  -546,  1383,   400
10517,  -730,  1727,   429
10526,  -677,  1973,   366
10537,  -614,  2216,   258
10546,  -602,  2485,   193
10557,  -625,  2781,   193
10566,  -657,  3007,   221
10576,  -656,  3207,   279
10587,  -658,  3468,   340
10596,  -687,  3783,   364
10607,  -730,  4086,   392
10616,  -783,  4272,   461
10627,  -876,  4281,   607
10637, -1009,  4167,   751
10646, -1049,  3893,   775
10657,  -871,  3642,   554
10666,  -505,  3450,    15
10677,    17,  3243,  -700
10686,   614,  3082, -1368
10696,  1044,  3309, -1802
10707,  1279,  3516, -1920
10716,  1258,  2911, -1622
10727,   911,  1670,  -803
10736,   116,   318,   243
10746,  -964,  -717,  1147
10757, -1778, -1289,  1629
10766, -2094, -1585,  1483
10777, -1873, -1701,   700
10786, -1261, -1889,  -269
10795,  -629, -2329, -1001
10806,  -506, -3102, -1294
10816,  -804, -4053, -1034
10827, -1356, -4790,  -466
10836, -1932, -5110,   139
10847, -2280, -5170,   611
10856, -2402, -5005,   913
10866, -2406, -4690,  1024
10877, -2333, -4195,  1012
10886, -2144, -3652,   902
10897, -1893, -3163,   785
10906, -1715, -2754,   741
10915, -1646, -2426,   774
10926, -1649, -2199,   835
10936, -1632, -2055,   858
10947, -1548, -1947,   836
10956, -1479, -1776,   794
10967, -1407, -1535,   706
10976, -1308, -1278,   585
10986, -1178, -1082,   457
10996, -1083,  -953,   338
11006, -1030,  -854,   217
11015,  -948,  -788,    94
11026,  -832,  -757,   -60
11036,  -680,  -752,  -218
11047,  -535,  -738,  -337
11056,  -467,  -681,  -372
11065,  -493,  -542,  -324
11076,  -570,  -387,  -215
11085,  -642,  -293,   -39
11096,  -774,  -188,   178
11106,  -911,   -89,   372
11117,  -979,    34,   517
11126, -1016,   163,   609
11135, -1005,   253,   627
11146,  -964,   285,   613
11156,  -919,   318,   569
11167,  -884,   325,   508
11176,  -863,   279,   473
11185,  -891,   185,   444
11196,  -878,   -11,   382
11205,  -806,  -228,   293
11216,  -727,  -349,   240
11226,  -716,  -326,   235
11235,  -720,  -221,   246
11246,  -691,   -91,   259
11255,  -663,    40,   273
11266,  -664,   158,   293
11276,  -669,   246,   310
11285,  -679,   306,   344
11296,  -730,   335,   409
11305,  -813,   285,   505
11316,  -908,   197,   587
11326,  -945,   156,   586
11336,  -853,   130,   505
11346,  -722,    61,   388
11355,  -646,     0,   304
11366,  -640,   -30,   280
11375,  -673,   -13,   293
11386,  -711,     7,   309
11396,  -742,    32,   325
11405,  -777,    53,   316
11416,  -769,    79,   268
11425,  -728,   100,   184
11436,  -653,   128,    97
11445,  -587,   176,    26
11455,  -519,   202,   -14
11466,  -431,   237,    -8
11475,  -349,   288,     9
11486,  -238,   319,    58
11495,  -112,   357,   178
11505,    -9,   432,   347
11516,   125,   546,   565
11525,   289,   684,   779
11536,   500,   832,   972
11545,   757,   892,  1114
11556,  1042,   775,  1304
11566,  1259,   523,  1538
11575,  1433,   258,  1734
11586,  1669,    -9,  1834
11595,  1928,  -282,  1854
11606,  2148,  -541,  1778
11615,  2323,  -791,  1666
11625,  2397, -1048,  1576
11636,  2322, -1270,  1548
11645,  2098, -1423,  1536
11656,  1854, -1435,  1464
11665,  1686, -1301,  1315
11675,  1586, -1073,  1131
11686,  1537,  -752,   946
11695,  1542,  -416,   631
11706,  1784,   169,   268
11715,  1653,   694,   103
11726,  1372,  1138,  -131
11735,  1056,  1655,  -190
11745,  1089,  2010,  -612
11756,  1325,  2183, -1122
11765,  1172,  2018, -1389
11776,   682,  1519, -1353
11785,   138,   769, -1126
11795,  -484,    -4,  -744
11806, -1200,  -708,  -401
11815, -1560, -1156,  -319
11826, -1581, -1291,  -447
11835, -1486, -1257,  -776
11844, -1460,  -984, -1017
11855, -1421,  -630, -1356
11865, -1363,  -116, -1496
11876, -1524,   210, -1573
11885, -1501,   510, -1496
11894, -1513,   808, -1445
11905, -1616,  1122, -1417
11915, -1666,  1317, -1359
11925, -1718,  1436, -1329
11935, -1699,  1338, -1279
11946, -1603,  1083, -1140
11955, -1867,   774,  -760
11964, -2173,   521,  -283
11975, -2399,   424,    84
11985, -2523,   406,   232
11996, -2395,   378,   111
12005, -2049,   385,  -209
12014, -1621,   444,  -531
12025, -1281,   560,  -696
12034, -1141,   638,  -615
12045, -1134,   643,  -325
12055, -1223,   624,    55
12066, -1306,   687,   405
12075, -1345,   873,   675
12084, -1363,  1090,   868
12095, -1335,  1288,  1003
12105, -1274,  1383,  1063
12115, -1167,  1448,  1104
12125, -1068,  1473,  1086
12134,  -926,  1388,  1048
12145,  -782,  1182,   987
12154,  -625,   912,   902
12165,  -438,   659,   750
12175,  -191,   468,   541
12185,   116,   357,   338
12195,   357,   346,   264
12204,   370,   377,   379
12215,   178,   394,   636
12224,   -23,   416,   948
12235,  -192,   539,  1200
12244,  -288,   736,  1359
12255,  -293,   935,  1411
12265,  -242,  1052,  1370
12274,  -130,  1070,  1265
12285,    -9,   995,  1092
12294,   131,   858,   870
12305,   269,   684,   638
12315,   380,   481,   421
12324,   471,   277,   258
12335,   488,   102,   207
12344,   403,    19,   280
12355,   232,    25,   425
12364,    85,   117,   554
12375,     1,   318,   606
12385,    -1,   571,   593
12394,    41,   787,   550
12405,    56,   969,   526
12414,    51,  1070,   520
12425,    64,  1064,   528
12435,    46,  1024,   538
12444,    -5,   939,   542
12455,   -46,   820,   551
12464,   -88,   717,   538
12475,  -119,   610,   500
12484,  -119,   481,   490
12494,  -131,   359,   481
12505,  -127,   315,   464
12514,  -108,   345,   450
12525,   -87,   416,   448
12535,   -95,   492,   472
12544,  -133,   537,   514
12555,  -148,   520,   549
12564,  -160,   496,   586
12575,  -198,   490,   617
12585,  -219,   461,   652
12594,  -255,   441,   678
12605,  -280,   444,   680
12614,  -274,   441,   655
12625,  -250,   408,   615
12634,  -248,   379,   592
12644,  -259,   347,   586
12655,  -282,   346,   640
12664,  -361,   394,   732
12675,  -411,   500,   840
12684,  -442,   733,   956
12694,  -491,  1083,  1104
12705,  -570,  1632,  1309
12714,  -697,  2380,  1652
12725,  -965,  3433,  2099
12734, -1427,  4900,  2475
12743, -1798,  6522,  2676
12754, -1985,  7755,  2450
12764, -1811,  8644,  1617
12775, -1212,  8830,   253
12784,  -137,  8115, -1220
12795,  1192,  6844, -2308
12804,  1976,  5275, -2825
12814,  1933,  3572, -2671
12825,  1193,  1845, -2008
12834,   -21,   169, -1233
12845, -1191, -1536,  -599
12854, -1900, -3094,  -186
12863, -2081, -4240,   -81
12874, -1818, -4741,  -281
12884, -1205, -4754,  -542
12895,  -660, -4514,  -754
12904,  -220, -4074,  -712
12913,   132, -3515,  -165
12924,     3, -3121,   675
12934,  -648, -2843,  1693
12945, -1593, -2444,  2651
12954, -2565, -1952,  3292
12965, -3290, -1408,  3535
12974, -3459,  -856,  3307
12983, -3085,  -392,  2667
12994, -2452,   -58,  1840
13004, -1817,   130,  1070
13015, -1331,    81,   455
13024, -1039,  -298,   103
13033,  -948,  -811,   -45
13044,  -936, -1199,  -187
13053,  -838, -1468,  -424
13064,  -572, -1581,  -702
13074,  -273, -1593, -1016
13083,    17, -1551, -1234
13094,   209, -1504, -1334
13103,   308, -1431, -1306
13114,   302, -1366, -1115
13124,   133, -1388,  -680
13133,  -224, -1367,   -47
13144,  -667, -1201,   585
13153,  -991,  -950,  1055
13164, -1097,  -752,  1288
13174,  -988,  -681,  1258
13185,  -772,  -654,  1042
13194,  -543,  -602,   736
13203,  -296,  -556,   459
13214,  -120,  -529,   295
13223,   -92,  -507,   255
13234,  -149,  -461,   239
13244,  -160,  -405,   163
13253,  -100,  -319,   -15
13264,    40,  -202,  -208
13273,   174,   -38,  -293
13284,   156,   120,  -262
13294,    17,   205,  -135
13303,  -157,   243,    75
13314,  -359,   196,   310
13323,  -539,    85,   469
13334,  -589,    -8,   536
13343,  -569,   -29,   519
13353,  -551,     2,   460
13364,  -504,    82,   446
13373,  -519,   184,   446
13384,  -576,   307,   471
13393,  -646,   420,   485
13403,  -672,   473,   479
13414,  -678,   451,   439
13423,  -621,   400,   324
13434,  -512,   338,   197
13443,  -421,   316,   115
13454,  -401,   317,    93
13463,  -445,   326,   120
13473,  -510,   354,   206
13484,  -623,   356,   326
13493,  -754,   362,   426
13504,  -848,   371,   481
13513,  -933,   361,   512
13523, -1021,   330,   540
13534, -1127,   274,   553
13543, -1255,   180,   585
13554, -1447,     0,   662
13563, -1704,  -337,   815
13573, -2034,  -797,  1046
13584, -2478, -1311,  1341
13593, -3016, -1727,  1618
13604, -3608, -1931,  1782
13613, -4192, -1868,  1722
13623, -4619, -1505,  1493
13634, -4784,  -935,  1189
13643, -4709,  -362,   774
13654, -4448,   105,   185
13663, -4012,   513,  -471
13672, -3464,   750, -1129
13683, -2886,   734, -1716
13693, -2262,   571, -2091
13704, -1681,   468, -2184
13713, -1230,   561, -1923
13724,  -878,   782, -1330
13733,  -637,  1073,  -658
13743,  -370,  1334,  -106
13754,    69,  1367,   119
13763,   743,  1268,   -48
13774,  1575,  1305,  -494
13783,  2510,  1521, -1019
13792,  3407,  1913, -1452
13803,  4096,  2448, -1644
13813,  4384,  2955, -1506
13824,  4266,  3341, -1011
13833,  3886,  3553,  -222
13842,  3352,  3502,   701
13853,  2797,  3364,  1521
13863,  2347,  3314,  2060
13874,  2139,  3228,  2250
13883,  2138,  2994,  2150
13892,  2173,  2570,  1839
13903,  2185,  2053,  1418
13912,  2188,  1535,   994
13923,  2149,   988,   580
13933,  2139,   350,   222
13944,  2135,  -298,     0
13953,  2039,  -809,   -76
13962,  1834, -1058,   -30
13973,  1567, -1058,   104
13983,  1275,  -923,   299
13994,   947,  -728,   512
14003,   617,  -476,   730
14012,   302,  -213,   920
14023,    41,    24,  1042
14032,  -134,   193,  1129
14044,  -264,   303,  1187
14053,  -378,   380,  1155
14062,  -409,   395,  1032
14073,  -337,   373,   848
14083,  -251,   333,   642
14092,  -187,   314,   461
14103,  -134,   347,   332
14112,   -96,   352,   252
14123,   -76,   317,   222
14133,   -71,   267,   205
14142,   -84,   199,   221
14153,  -109,   108,   263
14162,  -151,    19,   321
14173,  -209,   -19,   389
14182,  -253,   -32,   481
14193,  -305,   -14,   536
14203,  -311,    22,   531
14212,  -273,    40,   502
14223,  -250,    43,   474
14232,  -256,    56,   451
14243,  -263,    94,   452
14253,  -292,   132,   484
14262,  -323,   172,   511
14273,  -333,   202,   561
14282,  -349,   246,   653
14293,  -430,   302,   764
14302,  -518,   336,   889
14312,  -608,   329,   997
14323,  -672,   299,  1028
14332,  -655,   308,   975
14343,  -584,   345,   871
14352,  -502,   351,   761
14362,  -444,   308,   698
14373,  -427,   263,   660
14382,  -419,   260,   605
14393,  -402,   295,   543
14402,  -381,   325,   500
14412,  -395,   343,   466
14423,  -388,   345,   410
14432,  -357,   307,   377
14443,  -345,   229,   368
14452,  -342,   135,   351
14463,  -287,    -4,   321
14472,  -221,  -182,   306
14482,  -194,  -338,   297
14493,  -188,  -486,   269
14502,  -147,  -602,   240
14513,  -102,  -671,   196
14522,   -59,  -700,   137
14532,   -37,  -733,    56
14543,    10,  -894,   -53
14552,   123, -1387,  -140
14563,   244, -2210,  -150
14572,   274, -3122,   -39
14582,   174, -3934,   184
14592,   -34, -4470,   472
14602,  -269, -4824,   654
14613,  -311, -5145,   672
14622,  -251, -5400,   530
14631,  -191, -5554,   246
14642,   -81, -5364,  -202
14652,   129, -4764,  -769
14663,   421, -3817, -1266
14672,   566, -2584, -1575
14683,   440, -1146, -1675
14692,    74,   212, -1593
14702,  -309,  1038, -1376
14712,  -523,  1388, -1022
14722,  -676,  1915,  -823
14733,  -676,  2933,  -895
14742,  -428,  4286, -1099
14751,   -41,  5496, -1264
14762,   277,  6313, -1312
14772,   407,  6584, -1212
14783,   352,  6519,  -959
14792,   199,  6254,  -579
14801,    21,  5778,  -115
14812,  -216,  5142,   353
14821,  -460,  4492,   805
14832,  -668,  3971,  1181
14842,  -807,  3706,  1377
14853,  -804,  3613,  1361
14862,  -650,  3544,  1138
14871,  -374,  3400,   807
14882,   -86,  3175,   495
14892,   101,  2903,   277
14902,   163,  2564,   163
14912,   140,  2101,   130
14921,   123,  1557,   160
14932,    75,  1071,   233
14941,   -30,   695,   297
14952,  -124,   403,   279
14962,   -87,   154,   131
14973,    70,   -18,  -111
14982,   252,  -108,  -379
14991,   421,  -155,  -585
15002,   536,  -165,  -704
15011,   576,   -89,  -756
15022,   547,    85,  -745
15032,   456,   257,  -654
15041,   296,   308,  -478
15052,   131,   218,  -283
15061,    14,    80,  -195
15072,    17,   -49,  -258
15082,   163,  -181,  -395
15092,   336,  -310,  -492
15102,   420,  -389,  -489
15111,   383,  -389,  -381
15122,   257,  -257,  -205
15131,    99,   -50,   -33
15142,    -9,   149,   113
15152,  -103,   286,   238
15162,  -214,   404,   303
15172,  -244,   440,   262
15181,  -161,   385,   131
15192,   -42,   284,   -47
15201,    83,   195,  -201
15212,   182,   165,  -291
15222,   217,   179,  -326
15231,   223,   218,  -304
15242,   192,   307,  -268
15251,   158,   399,  -241
15262,   140,   449,  -188
15271,    77,   461,  -122
15281,    34,   418,   -62
15292,    16,   346,    -3
15301,     3,   259,    23
15312,    24,   162,    32
15321,    45,   143,    28
15332,    67,   130,    -7
15342,   123,    57,   -47
15351,   161,   -63,   -69
15362,   156,  -201,   -34
15372,    87,  -324,    21
15381,    10,  -408,    59
15392,   -40,  -475,    37
15401,   -40,  -564,   -48
15411,    18,  -689,  -193
15422,   134,  -837,  -371
15431,   259,  -962,  -554
15441,   365, -1087,  -690
15452,   452, -1224,  -772
15461,   503, -1343,  -791
15472,   517, -1485,  -771
15481,   511, -1725,  -813
15492,   568, -2188,  -925
15501,   670, -2927, -1103
15511,   775, -3791, -1408
15522,   988, -4567, -1799
15531,  1281, -4909, -2215
15542,  1517, -4747, -2592
15551,  1635, -4071, -2698
15561,  1516, -3055, -2497
15572,  1213, -2082, -1991
15581,   833, -1160, -1175
15592,   265,  -273,  -312
15601,  -275,   373,   466
15611,  -697,   933,   967
15622,  -999,  1456,  1029
15631,  -952,  1842,   720
15642,  -631,  2082,   199
15651,  -242,  2208,  -367
15660,   146,  2232,  -843
15671,   462,  2375, -1123
15681,   579,  2566, -1172
15692,   498,  2709,  -973
15701,   259,  2680,  -654
15712,    16,  2654,  -364
15721,  -145,  2837,  -239
15730,  -164,  2924,  -317
15741,    23,  2774,  -486
15751,   236,  2593,  -695
15762,   430,  2577,  -844
15771,   532,  2673,  -826
15780,   469,  2737,  -617
15791,   298,  2772,  -263
15800,    80,  2820,   129
15811,  -108,  2809,   467
15821,  -195,  2658,   707
15832,  -192,  2418,   787
15841,   -79,  2151,   717
15850,   130,  1878,   554
15861,   326,  1620,   378
15870,   447,  1338,   246
15881,   547,  1078,   167
15891,   640,   850,    89
15902,   756,   644,   -16
15911,   864,   498,  -101
15920,   912,   402,  -174
15931,   934,   303,  -227
15940,   948,   253,  -282
15951,   953,   243,  -316
15961,   917,   266,  -343
15970,   867,   300,  -354
15981,   840,   329,  -387
15990,   843,   351,  -434
16001,   853,   368,  -454
16010,   828,   374,  -443
16021,   769,   387,  -410
16031,   695,   405,  -362
16040,   633,   392,  -317
16051,   598,   391,  -266
16060,   561,   382,  -250
16071,   571,   347,  -268
16080,   629,   298,  -315
16091,   685,   236,  -380
16101,   736,   142,  -432
16110,   764,    53,  -420
16121,   747,    16,  -366
16130,   726,    51,  -288
16141,   739,   150,  -202
16151,   797,   257,   -98
16160,   906,   366,     1
16171,  1072,   494,    92
16180,  1295,   603,   194
16191,  1516,   672,   325
16200,  1717,   722,   508
16210,  1889,   728,   753
16221,  2003,   684,  1024
16230,  2118,   663,  1272
16241,  2257,   721,  1417
16250,  2450,   818,  1412
16261,  2737,   992,  1272
16270,  3044,  1221,   993
16280,  3346,  1382,   595
16291,  3629,  1417,   114
16300,  3892,  1205,  -273
16311,  4051,   884,  -301
16320,  3766,   458,   171
16331,  3099,    79,  1056
16340,  2194,  -175,  1974
16350,  1397,  -294,  2594
16361,  1021,  -302,  2701
16370,  1021,  -182,  2285
16381,  1246,    39,  1515
16390,  1631,   314,   619
16400,  2066,   634,  -308
16411,  2421,   966, -1199
16420,  2689,  1208, -1728
16431,  2560,  1313, -1527
16440,  1643,  1414,  -805
16451,   238,  1624,   -78
16460, -1015,  1737,   243
16470, -1613,  1597,     1
16480, -1733,  1215,  -845
16490, -1565,   802, -2015
16501, -1218,   423, -3162
16510,  -819,   -94, -3883
16521,  -737,  -615, -3790
16530, -1388, -1112, -2988
16540, -2410, -1403, -1788
16551, -3409, -1407,  -580
16560, -4059, -1277,   395
16571, -4204, -1083,  1027
16580, -4003,  -872,  1312
16589, -3619,  -713,  1384
16600, -3141,  -523,  1360
16610, -2698,  -314,  1324
16621, -2289,   -66,  1318
16630, -1963,   163,  1341
16639, -1697,   319,  1387
16650, -1474,   408,  1398
16660, -1241,   507,  1334
16671, -1002,   554,  1207
16680,  -751,   493,  1020
16691,  -474,   380,   804
16700,  -215,   271,   593
16709,     1,   188,   428
16720,   161,   146,   352
16730,   223,   233,   326
16741,   238,   392,   331
16750,   282,   507,   369
16759,   322,   620,   416
16770,   317,   713,   429
16779,   332,   727,   410
16790,   382,   692,   354
16800,   399,   644,   268
16811,   418,   610,   206
16820,   406,   569,   192
16829,   371,   539,   235
16840,   309,   503,   292
16849,   261,   443,   317
16860,   261,   382,   308
16870,   264,   335,   287
16879,   255,   278,   261
16890,   249,   235,   255
16899,   239,   270,   287
16910,   217,   419,   345
16919,   183,   582,   420
16930,   172,   704,   524
16940,   128,   779,   639
16949,    47,   837,   752
16960,   -41,   879,   847
16969,  -109,   872,   888
16980,  -116,   787,   838
16989,   -27,   649,   724
17000,    89,   493,   569
17010,   177,   371,   421
17019,   235,   296,   287
17030,   275,   211,   191
17039,   309,   117,   126
17050,   315,    93,    92
17060,   279,   193,    84
17069,   222,   387,   103
17080,   163,   622,   165
17089,    90,   902,   226
17100,    26,  1227,   284
17110,   -42,  1609,   357
17119,  -135,  2040,   462
17130,  -249,  2528,   635
17139,  -413,  3169,   900
17150,  -607,  4012,  1254
17159,  -843,  5089,  1665
17169, -1142,  6173,  2050
17180, -1461,  6989,  2378
17189, -1793,  7271,  2588
17200, -2049,  6968,  2632
17209, -2144,  6249,  2487
17220, -2053,  5180,  2159
17229, -1825,  3943,  1712
17239, -1577,  2866,  1122
17250, -1302,  2147,   476
17259, -1059,  1802,  -144
17270,  -920,  1408,  -726
17279,  -753,   650, -1128
17289,  -665,  -421, -1328
17299,  -727, -1584, -1396
17309,  -784, -2757, -1306
17320,  -893, -3803,  -989
17329, -1198, -4654,  -492
17340, -1594, -5331,    44
17349, -1876, -5750,   451
17359, -1925, -5971,   568
17370, -1694, -6070,   395
17379, -1320, -6079,    69
17390,  -947, -6067,  -233
17399,  -663, -5972,  -417
17408,  -530, -5674,  -462
17419,  -485, -5179,  -401
17429,  -497, -4563,  -276
17440,  -535, -3903,  -128
17449,  -567, -3227,     0
17460,  -576, -2578,    88
17469,  -584, -1923,   133
17479,  -573, -1316,   107
17489,  -512,  -839,    54
17499,  -464,  -547,    32
17510,  -485,  -448,    54
17519,  -540,  -385,   143
17528,  -635,  -293,   256
17539,  -734,  -179,   360
17549,  -797,  -107,   434
17560,  -809,  -116,   454
17569,  -798,  -132,   443
17580,  -775,  -164,   450
17589,  -785,  -138,   480
17598,  -811,   -43,   496
17609,  -803,    86,   551
17619,  -834,   175,   637
17630,  -892,   227,   746
17639,  -944,   260,   796
17649,  -934,   256,   781
17660,  -902,   206,   733
17669,  -883,   158,   668
17679,  -836,   132,   612
17690,  -781,   130,   569
17699,  -723,   149,   512
17708,  -654,   191,   444
17719,  -621,   255,   428
17729,  -669,   295,   487
17738,  -770,   300,   589
17749,  -865,   278,   691
17759,  -915,   222,   740
17768,  -909,   178,   733
17779,  -891,   205,   684
17789,  -860,   247,   618
17798,  -828,   218,   571
17809,  -825,    96,   520
17818,  -810,   -43,   450
17830,  -789,  -132,   351
17839,  -767,  -183,   263
17848,  -816,  -214,   194
17859,  -898,  -252,   117
17869,  -978,  -334,    12
17878, -1079,  -488,   -81
17889, -1295,  -743,  -148
17899, -1629, -1059,  -174
17908, -2150, -1383,  -173
17919, -2844, -1639,  -164
17929, -3600, -1773,  -124
17938, -4268, -1814,    21
17949, -4932, -1790,   301
17959, -5539, -1561,   693
17968, -6084, -1208,   919
17979, -6274,  -936,   830
17988, -5979,  -960,   471
17998, -5398, -1225,   -80
18009, -4687, -1499,  -747
18018, -3891, -1678, -1431
18028, -2996, -1663, -1929
18039, -2241, -1381, -2152
18048, -1715,  -998, -2016
18059, -1379,  -663, -1481
18069, -1210,  -390,  -672
18078, -1002,  -155,   195
18089,  -614,   103,   817
18099,    55,   506,   983
18108,   936,  1038,   751
18119,  1968,  1604,   352
18128,  2923,  2171,    15
18138,  3560,  2712,   -92
18149,  3750,  3144,    15
18158,  3668,  3292,   269
18168,  3540,  3117,   587
18179,  3390,  2797,   849
18188,  3231,  2393,   983
18198,  3138,  1936,   986
18209,  3094,  1524,   835
18218,  3113,  1308,   592
18229,  3132,  1302,   303
18238,  3128,  1292,    26
18248,  3054,  1155,  -184
18259,  2863,   934,  -242
18268,  2566,   770,  -124
18279,  2153,   593,   112
18288,  1692,   278,   400
18299,  1258,  -108,   641
18308,   878,  -480,   760
18318,   608,  -815,   780
18328,   410, -1065,   679
18338,   287, -1212,   551
18349,   179, -1219,   497
18358,   -17, -1105,   512
18369,  -213,  -923,   581
18378,  -363,  -710,   623
18387,  -448,  -512,   595
18398,  -473,  -367,   504
18408,  -479,  -281,   389
18419,  -489,  -227,   249
18428,  -504,  -129,    96
18439,  -494,    45,   -58
18448,  -471,   257,  -213
18457,  -422,   444,  -334
18468,  -399,   581,  -386
18478,  -432,   666,  -373
18488,  -476,   647,  -336
18498,  -503,   556,  -302
18509,  -524,   457,  -299
18518,  -535,   382,  -295
18527,  -553,   331,  -270
18538,  -612,   268,  -208
18547,  -691,   220,  -129
18558,  -718,   188,   -63
18568,  -699,   165,   -59
18579,  -629,   145,   -69
18588,  -569,   114,   -50
18598,  -567,    65,    22
18607,  -604,    26,   208
18618,  -699,    37,   434
18628,  -760,    65,   614
18637,  -687,    88,   712
18648,  -537,   119,   736
18658,  -390,   140,   678
18668,  -249,   115,   567
18678,  -132,    37,   459
18687,  -100,   -64,   363
18698,  -126,  -195,   304
18708,  -203,  -326,   290
18717,  -348,  -367,   256
18728,  -455,  -287,   151
18738,  -490,  -126,     4
18747,  -484,    81,  -147
18758,  -438,   345,  -245
18768,  -375,   705,  -249
18777,  -317,  1257,  -163
18788,  -284,  2026,    19
18797,  -266,  2881,   305
18807,  -211,  3739,   688
18818,   -64,  4625,  1158
18827,   141,  5557,  1611
18838,   397,  6537,  1932
18848,   770,  7452,  2121
18857,  1129,  8205,  2150
18868,  1366,  8784,  2072
18878,  1377,  8974,  1902
18887,  1141,  8538,  1622
18898,   770,  7786,  1242
18908,   125,  6862,   357
18917,  -221,  5756,  -933
18928,   -60,  4271, -2045
18938,  -169,  1598, -2743
18947,  -793, -1957, -2654
18958, -1838, -5666, -1936
18967, -3085, -8678, -1037
18977, -4023,-10299,  -130
18988, -4515,-10649,   673
18997, -4782,-10312,  1266
19007, -4898, -9716,  1603
19018, -4767, -8911,  1698
19027, -4450, -7937,  1521
19038, -3984, -6884,  1196
19048, -3497, -5869,   758
19057, -3009, -4979,   269
19068, -2483, -4203,  -257
19078, -1916, -3435,  -728
19087, -1431, -2564, -1092
19098, -1107, -1577, -1316
19108,  -908,  -628, -1338
19117,  -840,   158, -1147
19128,  -924,   765,  -799
19137, -1110,  1187,  -381
19147, -1294,  1431,    -4
19158, -1402,  1462,   277
19167, -1429,  1344,   440
19177, -1374,  1128,   524
19188, -1306,   867,   597
19197, -1288,   587,   650
19207, -1253,   321,   688
19218, -1177,   103,   694
19227, -1108,   -77,   706
19237, -1068,  -207,   762
19248, -1077,  -329,   823
19257, -1088,  -453,   892
19266, -1083,  -564,   965
19278, -1071,  -641,  1017
19287, -1033,  -625,  1031
19298,  -964,  -554,  1005
19307,  -891,  -528,   981
19317,  -859,  -602,  1001
19328,  -872,  -697,  1060
19337,  -882,  -735,  1076
19347,  -842,  -747,  1011
19358,  -714,  -733,   883
19367,  -589,  -631,   737
19377,  -530,  -466,   608
19388,  -519,  -280,   528
19397,  -544,  -142,   489
19406,  -573,   -52,   461
19417,  -607,    19,   444
19427,  -617,    71,   397
19436,  -590,    90,   308
19447,  -530,    58,   197
19457,  -470,    -2,    83
19466,  -423,   -64,   -23
19477,  -374,  -107,  -120
19487,  -314,  -138,  -182
19498,  -272,  -144,  -189
19507,  -285,  -144,  -126
19517,  -304,  -167,   -20
19528,  -313,  -174,   136
19537,  -337,  -147,   339
19547,  -348,  -137,   562
19558,  -321,  -151,   788
19567,  -278,  -179,   954
19576,  -174,  -239,  1035
19588,    18,  -357,  1049
19597,   245,  -489,  1012
19606,   523,  -642,   958
19617,   798,  -768,   922
19627,  1028,  -822,   943
19636,  1144,  -796,  1015
19647,  1213,  -738,  1088
19657,  1323,  -748,  1077
19666,  1486,  -742,   954
19677,  1699,  -668,   705
19687,  1940,  -658,   375
19696,  2188,  -665,    38
19707,  2380,  -611,  -284
19716,  2504,  -501,  -498
19727,  2551,  -327,  -544
19737,  2399,   -79,  -381
19748,  2100,   191,   -50
19757,  1722,   464,   314
19766,  1369,   751,   576
19777,  1105,  1083,   639
19786,   948,  1268,   475
19797,   905,  1231,   139
19806,   876,  1105,  -223
19817,   707,   946,  -410
19827,   263,   862,  -447
19836,  -266,   839,  -419
19847,  -756,   909,  -416
19856, -1325,  1037,  -625
19867, -1846,  1198, -1105
19876, -2134,  1300, -1739
19887, -2431,  1076, -2332
19896, -2850,   576, -2716
19906, -3269,    18, -2766
19917, -3656,  -463, -2513
19926, -3999,  -809, -2059
19937, -4289, -1057, -1555
19946, -4454, -1234, -1143
19957, -4501, -1287,  -956
19966, -4202, -1221, -1110
19976, -3604, -1120, -1496
19987, -2896, -1007, -1843
19996, -2377,  -866, -1911
20006, -2177,  -657, -1641
20017, -2210,  -394, -1102
20026, -2322,  -131,  -451
20037, -2422,    75,   135
20047, -2494,   216,   601
20056, -2437,   341,   906
20067, -2287,   465,  1055
20077, -2073,   583,  1114
20086, -1853,   660,  1117
20096, -1648,   712,  1102
20107, -1449,   740,  1040
20116, -1257,   659,   956
20127, -1104,   475,   862
20136,  -965,   323,   783
20145,  -850,   284,   659
20156,  -695,   324,   523
20166,  -546,   398,   435
20177,  -477,   461,   401
20186,  -453,   450,   408
20197,  -409,   388,   397
20206,  -342,   296,   359
20217,  -267,   196,   312
20226,  -212,   130,   337
20236,  -258,   109,   431
20246,  -338,   115,   550
20256,  -345,   116,   603
20267,  -289,    84,   568
20276,  -187,    10,   473
20287,   -73,   -95,   319
20296,    43,  -164,   186
20305,    77,  -150,   126
20316,     6,  -113,   179
20326,  -152,  -117,   348
20337,  -348,  -152,   563
20346,  -531,  -143,   702
20357,  -593,  -122,   689
20366,  -542,  -155,   537
20375,  -447,  -299,   301
20386,  -355,  -526,    90
20396,  -298,  -724,   -80
20406,  -332,  -929,  -209
20416,  -393, -1189,  -264
20427,  -479, -1455,  -190
20436,  -705, -1640,   -21
20445,  -965, -1738,   165
20456, -1162, -1827,   304
20466, -1336, -1949,   346
20476, -1414, -2058,   265
20486, -1322, -2178,    51
20497, -1058, -2451,  -275
20506,  -659, -2869,  -664
20515,  -206, -3353,  -924
20526,    64, -3532, -1061
20535,    97, -3279, -1202
20546,   162, -2719, -1362
20556,   320, -2065, -1466
20567,   450, -1416, -1448
20576,   513,  -852, -1344
20585,   569,  -551, -1245
20596,   595,  -508, -1128
20605,   572,  -681,  -934
20616,   452,  -931,  -693
20626,   184, -1119,  -497
20636,   -38, -1135,  -241
20646,  -265,  -938,    23
20655,  -454,  -703,   160
20666,  -431,  -720,   103
20675,  -227,  -947,  -158
20686,    42, -1296,  -675
20696,   430, -1604, -1296
20705,   896, -1583, -1891
20716,  1372, -1024, -2286
20725,  1727,   -65, -2339
20736,  1787,   948, -2049
20746,  1574,  1760, -1467
20755,  1207,  2201,  -907
20766,   950,  2210,  -618
20775,   940,  1913,  -566
20786,  1150,  1584,  -772
20795,  1421,  1627, -1011
20806,  1600,  2040, -1148
20815,  1675,  2426, -1155
20825,  1605,  2700,  -980
20836,  1373,  2839,  -614
20845,  1042,  2994,  -162
20856,   640,  3288,   320
20865,   230,  3708,   747
20876,   -89,  4233,  1041
20886,  -293,  4690,  1218
20895,  -415,  4951,  1293
20906,  -439,  4942,  1348
20915,  -446,  4811,  1403
20925,  -487,  4674,  1421
20936,  -472,  4461,  1423
20945,  -433,  4160,  1395
20955,  -381,  3758,  1300
20966,  -293,  3236,  1171
20975,  -196,  2633,  1074
20986,   -53,  2122,   937
20995,    97,  1655,   823
21005,   210,  1282,   732
21016,   295,  1042,   696
21025,   308,   927,   698
21035,   348,   897,   672
21046,   410,   885,   607
21055,   500,   896,   525
21065,   577,   936,   464
21076,   624,   971,   455
21085,   639,   917,   471
21095,   615,   807,   483
21106,   605,   675,   443
21115,   645,   541,   344
21124,   710,   423,   227
21135,   777,   334,   123
21145,   823,   286,    49
21154,   840,   252,     7
21165,   833,   282,   -15
21175,   811,   334,   -15
21186,   755,   368,    16
21195,   670,   392,    77
21205,   563,   402,   152
21216,   464,   371,   223
21225,   413,   423,   286
21235,   368,   514,   332
21246,   332,   575,   379
21255,   289,   575,   409
21265,   251,   579,   428
21276,   220,   562,   443
21285,   200,   593,   448
21294,   162,   568,   462
21306,   100,   505,   487
21315,    30,   504,   480
21324,   -34,   484,   451
21335,  -100,   407,   461
21345,  -219,   363,   474
21354,  -353,   367,   476
21365,  -478,   382,   455
21375,  -621,   415,   392
21384,  -789,   400,   265
21395,  -979,   280,    74
21405, -1170,   155,   -78
21414, -1423,  -102,  -202
21425, -1691,  -434,  -265
21435, -1961,  -709,  -322
21446, -2160,  -887,  -348
21455, -2351,  -928,  -374
21464, -2510,  -902,  -475
21475, -2519,  -966,  -667
21485, -2331, -1098,  -870
21494, -2077,  -952,  -968
21505, -1947,  -382,  -928
21514, -1886,   313,  -737
21525, -1874,   873,  -420
21535, -1965,  1267,   -37
21545, -2045,  1570,   427
21555, -2076,  1892,   879
21564, -2039,  2155,  1119
21575, -1653,  2292,  1095
21585,  -821,  2355,   828
21594,   131,  2443,   355
21605,  1086,  2440,  -160
21615,  2093,  2385,  -462
21625,  2792,  2317,  -549
21635,  3168,  2255,  -405
21644,  3438,  2376,   -43
21655,  3554,  2716,   289
21665,  3706,  2925,   436
21674,  4024,  2866,   491
21685,  4256,  2629,   447
21694,  4412,  2208,   185
21705,  4809,  1594,   -93
21715,  5156,  1101,  -260
21724,  5214,   681,  -282
21735,  5019,   252,   -69
21744,  4620,  -148,   318
21755,  4046,  -399,   715
21764,  3469,  -491,  1027
21774,  3000,  -464,  1202
21785,  2637,  -347,  1226
21794,  2370,  -221,  1114
21805,  2202,   -91,   927
21814,  2083,    62,   671
21825,  1987,   190,   399
21835,  1885,   225,   206
21844,  1664,   199,   167
21855,  1294,   165,   325
21864,   822,   115,   601
21875,   340,    50,   867
21884,   -56,     2,  1035
21894,  -287,   -12,  1059
21905,  -297,    16,   946
21914,  -198,   117,   788
21925,  -137,   240,   605
21934,   -45,   341,   432
21945,    72,   385,   273
21954,   159,   410,   137
21964,   217,   443,    35
21975,   240,   452,     9
21984,   189,   505,    30
21995,   131,   571,    67
22004,   129,   638,   108
22014,   126,   713,   122
22025,   148,   791,   137
22034,   145,   829,   141
22045,   144,   850,   144
22054,   134,   852,   118
22065,   170,   831,    42
22074,   260,   771,   -22
22084,   294,   760,   -15
22095,   202,   781,    82
22104,    49,   782,   243
22115,   -89,   813,   419
22124,  -222,   892,   532
22134,  -305,   971,   545
22145,  -291,  1063,   467
22154,  -225,  1173,   354
22165,  -173,  1366,   284
22174,  -203,  1632,   286
22183,  -290,  1921,   358
22194,  -414,  2191,   460
22204,  -532,  2444,   544
22215,  -638,  2747,   589
22224,  -756,  3128,   632
22233,  -887,  3651,   736
22244, -1033,  4257,   928
22254, -1288,  4770,  1179
22265, -1704,  5100,  1436
22274, -2099,  5263,  1653
22285, -2380,  5165,  1738
22294, -2480,  4888,  1737
22304, -2457,  4485,  1604
22313, -2349,  4002,  1244
22325, -2026,  3481,   776
22334, -1574,  2891,   321
22343, -1201,  2151,   -76
22353,  -904,  1178,  -375
22364,  -631,   -67,  -532
22374,  -402, -1468,  -531
22383,  -340, -2797,  -460
22395,  -329, -3545,  -361
22404,  -455, -3414,  -282
22413,  -642, -2408,  -316
22423,  -650,  -630,  -544
22434,  -390,   899,  -957
22444,    19,  1038, -1444
22453,   409,  -372, -1773
22465,   561, -2413, -1712
22474,   327, -4088, -1354
22484,   -45, -5120,  -877
22494,  -377, -5623,  -388
22504,  -613, -5631,    40
22514,  -766, -5240,   296
22523,  -729, -4668,   308
22534,  -498, -4170,   190
22544,  -299, -3832,    74
22553,  -267, -3680,     7
22564,  -355, -3614,   -55
22574,  -399, -3548,  -175
22584,  -364, -3439,  -372
22593,  -273, -3240,  -602
22604,  -162, -2926,  -857
22614,   -57, -2575, -1128
22623,    78, -2264, -1370
22634,   188, -1980, -1576
22644,   269, -1707, -1715
22653,   311, -1484, -1775
22663,   294, -1323, -1740
22674,   212, -1192, -1631
22684,    93, -1017, -1480
22693,    10,  -834, -1284
22704,  -116,  -667,  -992
22714,  -338,  -501,  -664
22723,  -548,  -304,  -374
22733,  -652,  -100,  -173
22744,  -681,    55,   -61
22753,  -677,   110,     0
22763,  -685,    93,    41
22774,  -686,    31,    62
22784,  -663,   -43,    39
22793,  -618,  -125,    -4
22803,  -568,  -155,   -46
22814,  -544,  -184,  -103
22823,  -486,  -230,  -154
22833,  -446,  -261,  -200
22844,  -417,  -269,  -253
22853,  -352,  -327,  -314
22863,  -281,  -406,  -327
22874,  -291,  -459,  -298
22883,  -324,  -504,  -233
22894,  -346,  -487,  -142
22904,  -381,  -377,   -56
22913,  -422,  -244,     6
22923,  -429,  -159,    46
22934,  -414,  -117,    32
22943,  -353,   -61,   -32
22953,  -247,   -14,  -114
22963,  -133,   -40,  -187
22974,   -55,   -62,  -215
22983,     0,   -24,  -209
22993,    61,    53,  -156
23004,   100,   142,   -67
23014,   115,   215,    31
23023,   148,   277,   124
23033,   233,   263,   178
23044,   357,   212,   222
23053,   488,   119,   250
23063,   656,     0,   298
23074,   810,   -75,   400
23083,   892,   -83,   525
23093,   955,   -65,   601
23102,  1053,  -111,   556
23114,  1221,  -237,   340
23123,  1464,  -390,   -16
23133,  1755,  -506,  -444
23142,  2057,  -583,  -877
23153,  2316,  -592, -1232
23163,  2481,  -498, -1402
23172,  2470,  -298, -1373
23183,  2281,   -26, -1193
23193,  2072,   321,  -934
23202,  1883,   642,  -721
23214,  1760,   909,  -603
23223,  1729,  1111,  -529
23233,  1711,  1201,  -510
23244,  1685,  1216,  -544
23253,  1649,  1181,  -682
23263,  1628,   977,  -795
23274,  1464,   648,  -653
23283,   940,   302,  -278
23292,   294,    15,   134
23303,  -216,  -184,   487
23313,  -557,  -341,   585
23322,  -688,  -463,   425
23333,  -692,  -543,    95
23343,  -681,  -619,  -314
23352,  -716,  -608,  -714
23363,  -825,  -485, -1076
23373,  -966,  -537, -1337
23382, -1188,  -900, -1390
23393, -1565, -1329, -1304
23403, -1940, -1540, -1224
23412, -2119, -1560, -1224
23423, -2150, -1442, -1276
23433, -2175, -1306, -1305
23442, -2255, -1248, -1256
23453, -2390, -1190, -1129
23463, -2541, -1139,  -970
23472, -2625, -1022,  -757
23482, -2704,  -847,  -549
23493, -2756,  -700,  -342
23503, -2763,  -551,  -177
23512, -2734,  -427,   -68
23523, -2655,  -355,   -20
23533, -2489,  -312,   -33
23542, -2290,  -214,   -40
23552, -2115,   -54,    -5
23563, -1957,    84,    56
23573, -1803,   174,   108
23582, -1623,   220,   119
23593, -1429,   233,    62
23602, -1190,   214,   -28
23613,  -941,   152,  -128
23623,  -748,   131,  -189
23632,  -597,   120,  -230
23643,  -437,   101,  -230
23652,  -333,   134,  -203
23663,  -297,   209,  -160
23672,  -269,   277,   -93
23683,  -234,   328,   -51
23693,  -155,   355,   -49
23702,   -29,   364,   -86
23713,   108,   375,  -161
23722,   258,   368,  -271
23733,   411,   359,  -356
23743,   471,   348,  -356
23752,   429,   336,  -292
23763,   373,   308,  -193
23772,   317,   287,   -98
23783,   289,   271,   -41
23792,   290,   274,   -28
23802,   314,   290,   -72
23813,   362,   282,  -148
23822,   388,   274,  -202
23833,   372,   298,  -240
23842,   330,   300,  -244
23852,   275,   282,  -228
23863,   220,   269,  -184
23872,   167,   252,  -138
23883,   126,   218,  -121
23892,   118,   178,  -129
23903,   148,   160,  -184
23912,   205,   127,  -264
23922,   259,   101,  -324
23933,   264,   111,  -370
23942,   257,   129,  -420
23953,   281,   131,  -466
23962,   313,   109,  -508
23971,   334,    54,  -556
23982,   359,   -39,  -596
23992,   391,  -127,  -572
24003,   372,  -172,  -515
24012,   315,  -148,  -441
24023,   267,   -77,  -388
24032,   240,     0,  -351
24042,   217,    71,  -313
24052,   170,   102,  -278
24062,   123,    52,  -244
24073,   109,   -44,  -210
24082,   105,  -150,  -213
24091,   128,  -228,  -222
24102,   163,  -243,  -215
24112,   154,  -201,  -175
24123,   112,  -120,  -112
24132,    66,    -9,   -23
24143,    22,    96,    36
24152,    15,   196,    84
24161,    27,   282,   132
24172,     4,   335,   172
24182,   -21,   353,   184
24193,   -23,   327,   143
24202,    27,   266,    24
24211,   133,   173,  -148
24222,   280,    63,  -315
24231,   395,    -7,  -422
24242,   431,   -30,  -442
24252,   378,   -68,  -390
24263,   268,  -105,  -296
24272,   144,  -106,  -214
24281,    76,   -81,  -155
24292,    39,   -46,  -103
24302,     2,   -35,   -62
24312,    -8,   -63,   -52
24322,    17,  -169,   -46
24331,    35,  -348,   -29
24342,    46,  -519,   -10
24351,    51,  -572,    13
24362,    99,  -544,    11
24372,   161,  -491,     8
24383,   180,  -427,    17
24392,   158,  -350,    32
24401,   143,  -268,    42
24412,   146,  -192,    22
24421,   151,  -157,     6
24432,   155,  -143,    16
24442,   130,  -144,    24
24451,   126,  -153,    25
24462,   132,  -141,    41
24471,   126,  -107,    54
24482,   102,   -70,    58
24492,    74,   -41,    40
24501,    66,     4,    12
24512,    64,    50,   -26
24521,    66,    80,   -43
24532,    58,    77,   -44
24541,    29,    67,   -15
24552,    -1,    35,    10
24562,   -24,     7,    25
24571,   -36,   -19,    30
24582,   -82,   -40,    65
24591,  -147,   -37,   102
24602,  -188,    -1,   135
24611,  -193,    52,   129
24622,  -156,    68,    80
24632,   -82,    33,    12
24641,   -23,   -12,   -55
24652,    28,   -57,   -93
24661,    36,   -91,   -83
24671,     5,   -70,   -32
24682,   -30,   -20,     3
