time,accx,accy,accz
5, -3654,  5034,  6225
12, -3689,  5088,  6226
18, -3675,  5073,  6226
23, -3659,  5064,  6231
29, -3656,  5044,  6230
37, -3651,  5048,  6242
48, -3684,  5058,  6241
57, -3701,  5038,  6222
68, -3706,  5011,  6219
78, -3731,  4999,  6222
87, -3747,  4983,  6233
98, -3720,  4986,  6237
107, -3683,  4991,  6229
118, -3670,  4986,  6223
127, -3657,  4990,  6214
138, -3653,  4997,  6210
148, -3660,  4986,  6223
157, -3686,  4968,  6225
168, -3715,  4946,  6214
177, -3729,  4953,  6210
188, -3729,  4957,  6216
198, -3713,  4951,  6217
207, -3697,  4948,  6220
217, -3706,  4940,  6228
228, -3723,  4938,  6234
237, -3735,  4926,  6229
248, -3750,  4899,  6221
257, -3754,  4890,  6220
268, -3766,  4897,  6222
277, -3790,  4925,  6230
287, -3807,  4947,  6232
298, -3799,  4945,  6235
307, -3781,  4918,  6229
318, -3766,  4885,  6226
327, -3758,  4866,  6220
338, -3756,  4883,  6221
347, -3772,  4922,  6229
357, -3784,  4965,  6234
368, -3776,  4985,  6231
377, -3760,  4976,  6237
388, -3747,  4962,  6235
397, -3733,  4953,  6234
408, -3736,  4952,  6234
417, -3753,  4962,  6230
428, -3754,  5006,  6232
437, -3713,  5048,  6233
447, -3649,  5065,  6223
458, -3604,  5071,  6213
467, -3610,  5089,  6210
478, -3649,  5102,  6212
487, -3699,  5096,  6215
498, -3758,  5048,  6222
507, -3809,  4994,  6232
517, -3835,  4942,  6242
528, -3835,  4908,  6244
537, -3817,  4862,  6235
548, -3781,  4786,  6224
557, -3753,  4778,  6225
568, -3759,  4824,  6229
577, -3752,  4885,  6229
587, -3767,  4947,  6229
598, -3778,  4970,  6234
607, -3748,  4968,  6236
618, -3715,  4962,  6230
627, -3708,  4955,  6228
638, -3722,  4959,  6236
647, -3739,  4983,  6242
656, -3753,  4998,  6244
667, -3768,  5011,  6248
677, -3772,  5038,  6250
688, -3757,  5039,  6244
697, -3732,  4992,  6228
708, -3699,  4936,  6212
717, -3691,  4889,  6208
726, -3702,  4881,  6215
737, -3724,  4911,  6224
747, -3746,  4945,  6222
758, -3750,  4965,  6228
767, -3752,  4972,  6235
778, -3753,  4965,  6227
787, -3763,  4956,  6224
797, -3767,  4960,  6226
807, -3770,  4997,  6232
817, -3761,  5026,  6236
826, -3731,  5028,  6231
837, -3703,  4987,  6217
846, -3689,  4933,  6216
857, -3682,  4895,  6211
867, -3689,  4880,  6208
878, -3720,  4886,  6213
887, -3763,  4922,  6218
897, -3798,  4970,  6225
906, -3810,  5025,  6231
917, -3803,  5065,  6234
926, -3778,  5040,  6236
938, -3741,  4973,  6234
947, -3712,  4910,  6216
956, -3699,  4874,  6205
967, -3710,  4885,  6204
976, -3733,  4922,  6211
987, -3759,  4964,  6223
997, -3778,  5009,  6228
1006, -3782,  5036,  6235
1017, -3762,  5018,  6232
1026, -3734,  4975,  6222
1037, -3726,  4941,  6221
1047, -3728,  4925,  6218
1058, -3737,  4928,  6222
1067, -3741,  4940,  6231
1076, -3746,  4964,  6240
1087, -3740,  4979,  6234
1097, -3736,  4967,  6226
1106, -3748,  4935,  6224
1117, -3760,  4916,  6227
1126, -3753,  4923,  6225
1137, -3748,  4926,  6223
1146, -3746,  4941,  6226
1157, -3727,  4961,  6228
1167, -3701,  4961,  6229
1176, -3698,  4937,  6230
1187, -3716,  4928,  6235
1196, -3735,  4955,  6225
1207, -3748,  5006,  6232
1216, -3772,  5035,  6232
1227, -3777,  5011,  6230
1237, -3756,  4960,  6220
1246, -3734,  4914,  6216
1257, -3710,  4889,  6216
1266, -3703,  4893,  6209
1277, -3709,  4923,  6218
1286, -3734,  4966,  6221
1297, -3743,  5033,  6216
1306, -3757,  5080,  6225
1316, -3794,  5039,  6234
1327, -3826,  4873,  6235
1336, -3856,  4710,  6228
1347, -3844,  4608,  6214
1356, -3847,  4544,  6218
1367, -3976,  4708,  6237
1376, -4037,  5026,  6275
1386, -4072,  5447,  6292
1397, -4169,  5807,  6286
1406, -4251,  5955,  6311
1417, -4214,  6056,  6336
1426, -4097,  6070,  6414
1437, -4257,  5572,  6366
1446, -5059,  4411,  5868
1455, -6053,  4024,  5499
1466, -6072,  3661,  6004
1476, -5486,  3192,  6130
1487, -5184,  3077,  5915
1497, -5243,  3275,  5817
1506, -5496,  3499,  5879
1516, -5735,  3694,  5909
1527, -5748,  3867,  5934
1536, -5584,  4128,  5991
1547, -5322,  4401,  6173
1556, -5087,  4695,  6337
1565, -4881,  5079,  6415
1576, -4717,  5570,  6439
1586, -4637,  6039,  6607
1597, -4825,  6514,  6772
1606, -5083,  6730,  6966
1616, -5249,  6395,  7136
1627, -5405,  5849,  7097
1636, -5443,  5311,  6878
1645, -5152,  4837,  6546
1656, -4607,  4407,  6156
1666, -4039,  4116,  5742
1676, -3562,  4051,  5370
1686, -3192,  4119,  5094
1697, -2893,  4284,  4953
1706, -2706,  4578,  4958
1715, -2681,  4877,  5070
1726, -2758,  5060,  5265
1735, -2884,  5073,  5517
1746, -2984,  4820,  5743
1756, -3028,  4398,  5898
1767, -2957,  3886,  5982
1776, -2802,  3460,  6065
1785, -2634,  3220,  6036
1796, -2469,  3150,  5866
1805, -2265,  3240,  5644
1817, -2104,  3452,  5510
1826, -2143,  3762,  5535
1835, -2321,  4067,  5693
1846, -2532,  4295,  5911
1855, -2736,  4467,  6116
1866, -2828,  4555,  6303
1876, -2874,  4659,  6477
1887, -3002,  4846,  6588
1896, -3159,  5024,  6658
1905, -3167,  5175,  6728
1916, -3041,  5255,  6729
1925, -2849,  5265,  6633
1936, -2570,  5241,  6446
1946, -2193,  5174,  6194
1955, -1763,  5046,  5942
1966, -1416,  4859,  5755
1975, -1166,  4628,  5723
1986, -1158,  4437,  5856
1995, -1360,  4238,  6129
2007, -1660,  4077,  6490
2016, -1969,  3984,  6857
2025, -2254,  3966,  7121
2036, -2456,  4029,  7226
2046, -2528,  4150,  7187
2055, -2516,  4280,  7048
2066, -2472,  4383,  6896
2075, -2448,  4437,  6740
2086, -2432,  4447,  6574
2095, -2385,  4450,  6426
2106, -2350,  4477,  6313
2116, -2367,  4520,  6234
2125, -2415,  4570,  6178
2136, -2469,  4613,  6155
2146, -2510,  4653,  6168
2155, -2552,  4677,  6195
2166, -2580,  4671,  6259
2175, -2597,  4714,  6330
2186, -2605,  4760,  6360
2196, -2582,  4767,  6385
2205, -2542,  4776,  6409
2216, -2516,  4801,  6456
2226, -2530,  4836,  6541
2235, -2571,  4875,  6675
2246, -2627,  4923,  6803
2255, -2647,  4988,  6900
2266, -2594,  5050,  6898
2275, -2450,  5132,  6803
2286, -2203,  5149,  6652
2296, -1953,  5086,  6476
2305, -1753,  5018,  6338
2316, -1613,  5001,  6251
2325, -1555,  4982,  6209
2335, -1541,  4901,  6236
2346, -1579,  4847,  6317
2355, -1625,  4837,  6367
2366, -1621,  4857,  6359
2375, -1570,  4890,  6320
2385, -1534,  4965,  6286
2396, -1518,  5026,  6256
2405, -1589,  5049,  6235
2416, -1633,  4977,  6246
2425, -1683,  4935,  6259
2435, -1774,  4884,  6294
2446, -1921,  4765,  6381
2455, -2103,  4694,  6503
2466, -2356,  4753,  6568
2475, -2543,  4806,  6558
2486, -2593,  4855,  6450
2495, -2583,  4952,  6250
2505, -2546,  5094,  6014
2516, -2451,  5235,  5723
2525, -2368,  5352,  5505
2534, -2420,  5448,  5432
2545, -2644,  5478,  5497
2555, -2937,  5465,  5635
2565, -3198,  5404,  5691
2575, -3270,  5205,  5649
2586, -3240,  5001,  5640
2595, -3309,  4842,  5705
2604, -3503,  4710,  5882
2616, -3734,  4542,  6119
2625, -3936,  4398,  6351
2634, -4161,  4421,  6519
2645, -4280,  4480,  6524
2655, -4201,  4564,  6427
2666, -4049,  4717,  6284
2675, -3934,  4925,  6124
2684, -3887,  5155,  6002
2695, -3889,  5397,  5883
2704, -3897,  5612,  5787
2715, -3937,  5808,  5744
2725, -4080,  5972,  5694
2736, -4231,  6100,  5643
2745, -4330,  6177,  5548
2754, -4333,  6208,  5401
2765, -4281,  6198,  5266
2774, -4256,  6077,  5186
2785, -4307,  5841,  5235
2795, -4442,  5527,  5363
2806, -4588,  5200,  5555
2815, -4718,  4981,  5753
2825, -4787,  4813,  5905
2835, -4788,  4652,  6024
2845, -4766,  4528,  6116
2854, -4748,  4427,  6151
2865, -4713,  4304,  6149
2874, -4674,  4276,  6115
2885, -4631,  4405,  6037
2894, -4604,  4642,  5974
2905, -4630,  4946,  5921
2915, -4638,  5294,  5888
2924, -4595,  5562,  5865
2935, -4597,  5776,  5807
2944, -4649,  5876,  5801
2955, -4726,  5823,  5895
2965, -4881,  5617,  6125
2974, -5146,  5338,  6457
2985, -5460,  5046,  6789
2994, -5658,  4771,  7055
3005, -5751,  4512,  7243
3014, -5778,  4266,  7297
3024, -5716,  4040,  7247
3035, -5605,  3849,  7117
3044, -5445,  3706,  6975
3055, -5286,  3629,  6827
3065, -5127,  3620,  6628
3074, -4927,  3654,  6437
3085, -4758,  3693,  6278
3094, -4665,  3738,  6138
3105, -4613,  3817,  6034
3114, -4572,  3906,  5950
3124, -4539,  3964,  5881
3135, -4503,  4014,  5834
3144, -4505,  4097,  5777
3155, -4488,  4253,  5690
3164, -4419,  4431,  5591
3174, -4293,  4472,  5460
3185, -4154,  4244,  5364
3194, -3932,  3880,  5381
3204, -3766,  3712,  5455
3215, -3724,  3794,  5561
3224, -3761,  4160,  5731
3235, -3893,  4725,  5895
3244, -4045,  5295,  6072
3254, -4149,  5716,  6316
3265, -4329,  6028,  6467
3274, -4467,  6277,  6512
3285, -4480,  6333,  6507
3294, -4423,  6118,  6498
3305, -4349,  5735,  6510
3314, -4325,  5176,  6551
3324, -4325,  4528,  6675
3335, -4395,  4027,  6831
3344, -4510,  3835,  6916
3354, -4607,  3915,  6873
3365, -4590,  4075,  6705
3374, -4533,  4001,  6453
3385, -4443,  3664,  6195
3394, -4267,  3275,  5976
3405, -4059,  2938,  5782
3414, -3889,  2733,  5593
3424, -3740,  2712,  5470
3435, -3655,  2822,  5439
3444, -3678,  2964,  5415
3453, -3789,  3158,  5430
3464, -3994,  3158,  5647
3474, -4277,  3036,  6112
3485, -4700,  3082,  6600
3494, -5025,  3308,  6945
3503, -5062,  3511,  7039
3514, -4890,  3660,  6920
3524, -4579,  3722,  6698
3535, -4204,  3585,  6535
3544, -3997,  3467,  6489
3553, -4090,  3533,  6478
3564, -4341,  3816,  6533
3574, -4551,  4254,  6605
3584, -4682,  4628,  6637
3594, -4646,  4641,  6638
3605, -4582,  4396,  6611
3614, -4487,  4035,  6408
3623, -4269,  3788,  6120
3635, -3903,  3716,  5826
3644, -3545,  3908,  5570
3653, -3266,  4250,  5341
3664, -3084,  4462,  5189
3674, -2937,  4440,  5151
3685, -2855,  4271,  5275
3694, -2854,  4010,  5459
3703, -2987,  3891,  5567
3714, -3103,  3940,  5587
3723, -3162,  4093,  5535
3734, -3175,  4222,  5495
3743, -3162,  4122,  5537
3755, -3109,  3885,  5607
3764, -3085,  3694,  5690
3773, -3116,  3737,  5737
3784, -3137,  4082,  5757
3794, -3103,  4621,  5876
3805, -3132,  5148,  6062
3814, -3299,  5503,  6243
3823, -3519,  5562,  6335
3834, -3674,  5334,  6300
3844, -3647,  5060,  6169
3853, -3570,  4995,  5983
3864, -3514,  5042,  5794
3873, -3433,  5214,  5663
3883, -3335,  5422,  5593
3894, -3223,  5586,  5610
3903, -3176,  5639,  5640
3914, -3178,  5579,  5735
3923, -3278,  5598,  5915
3934, -3514,  5723,  6134
3944, -3819,  5915,  6345
3953, -4094,  6075,  6473
3964, -4159,  6146,  6616
3973, -4128,  6258,  6743
3984, -4129,  6300,  6798
3994, -4072,  6249,  6859
4003, -4006,  6140,  6875
4014, -3981,  6127,  6876
4023, -4024,  6029,  6820
4034, -4052,  5762,  6742
4044, -4010,  5517,  6671
4053, -3944,  5347,  6627
4064, -3918,  5353,  6603
4073, -3941,  5488,  6605
4084, -3993,  5667,  6624
4093, -4075,  5895,  6617
4104, -4131,  6106,  6554
4113, -4088,  6321,  6478
4123, -4000,  6495,  6420
4134, -3965,  6537,  6383
4143, -3956,  6413,  6358
4154, -3929,  6069,  6332
4163, -3882,  5675,  6269
4174, -3806,  5359,  6220
4183, -3784,  5243,  6200
4193, -3822,  5319,  6214
4204, -3862,  5403,  6265
4213, -3946,  5453,  6363
4224, -4045,  5509,  6451
4233, -4098,  5493,  6484
4243, -4066,  5408,  6414
4254, -3930,  5287,  6304
4263, -3778,  5192,  6176
4273, -3668,  5160,  6045
4284, -3609,  5125,  5948
4293, -3609,  5084,  5907
4304, -3686,  5145,  5942
4313, -3803,  5276,  5991
4322, -3872,  5347,  6026
4333, -3879,  5357,  6060
4343, -3911,  5374,  6074
4352, -3926,  5396,  6019
4363, -3838,  5375,  5909
4373, -3730,  5328,  5762
4384, -3640,  5273,  5665
4393, -3610,  5233,  5702
4404, -3710,  5190,  5819
4413, -3829,  5116,  5972
4422, -3907,  5040,  6108
4433, -3926,  4981,  6205
4443, -3914,  4988,  6284
4454, -3925,  5060,  6332
4463, -3895,  5117,  6310
4473, -3784,  5108,  6243
4484, -3657,  5070,  6188
4493, -3570,  5038,  6186
4502, -3577,  5023,  6271
4513, -3655,  4986,  6407
4523, -3751,  4930,  6536
4534, -3807,  4907,  6600
4543, -3792,  4917,  6595
4552, -3727,  4941,  6547
4563, -3684,  4999,  6490
4573, -3677,  5089,  6428
4582, -3643,  5158,  6395
4593, -3643,  5234,  6388
4602, -3699,  5306,  6377
4613, -3754,  5339,  6374
4623, -3776,  5303,  6343
4634, -3795,  5206,  6271
4643, -3824,  5071,  6210
4652, -3928,  4930,  6188
4663, -4100,  4805,  6185
4672, -4300,  4736,  6181
4683, -4558,  4692,  6173
4693, -4937,  4631,  6124
4702, -5393,  4574,  6054
4713, -5903,  4496,  6009
4723, -6439,  4440,  6066
4733, -7002,  4451,  6281
4743, -7658,  4394,  6596
4752, -8315,  4351,  6940
4763, -8837,  4354,  7157
4773, -9053,  4455,  7063
4782, -8857,  4706,  6685
4793, -8435,  5023,  6094
4802, -7923,  5321,  5433
4813, -7266,  5652,  4936
4823, -6665,  6013,  4650
4832, -6120,  6382,  4625
4843, -5545,  6759,  4784
4852, -5061,  7035,  4901
4863, -4518,  7116,  5060
4873, -3989,  6986,  5363
4882, -3739,  6697,  5744
4893, -3603,  6515,  6165
4902, -3496,  6514,  6424
4913, -3289,  6546,  6405
4923, -2946,  6576,  6225
4932, -2665,  6464,  5911
4943, -2415,  6184,  5629
4952, -2196,  5987,  5567
4963, -2102,  6013,  5670
4973, -1993,  6062,  5866
4982, -1796,  6016,  6021
4993, -1483,  5809,  6043
5002, -1089,  5462,  5884
5012,  -633,  5148,  5580
5023,  -119,  4830,  5285
5032,   277,  4435,  5206
5043,   244,  4047,  5470
5052,  -267,  3747,  6061
5062, -1009,  3574,  6758
5073, -1754,  3508,  7350
5082, -2310,  3527,  7701
5093, -2585,  3672,  7763
5102, -2651,  3912,  7583
5113, -2663,  4189,  7243
5122, -2628,  4525,  6819
5132, -2498,  4923,  6411
5143, -2380,  5338,  6103
5152, -2381,  5724,  5977
5163, -2581,  6032,  6038
5172, -2936,  6201,  6235
5182, -3311,  6221,  6490
5193, -3628,  6192,  6702
5202, -3841,  6204,  6794
5213, -3914,  6212,  6755
5222, -3885,  6110,  6635
5232, -3821,  5868,  6472
5243, -3723,  5618,  6373
5252, -3688,  5403,  6329
5263, -3725,  5238,  6358
5272, -3801,  5132,  6460
5282, -3939,  5068,  6570
5293, -4089,  5077,  6631
5302, -4152,  5120,  6604
5312, -4115,  5175,  6502
5323, -4042,  5255,  6373
5332, -3975,  5310,  6264
5341, -3924,  5321,  6210
5352, -3886,  5366,  6197
5362, -3830,  5450,  6195
5373, -3782,  5522,  6219
5382, -3783,  5550,  6277
5391, -3831,  5537,  6323
5402, -3833,  5527,  6328
5412, -3775,  5527,  6272
5423, -3680,  5518,  6201
5432, -3624,  5522,  6176
5441, -3634,  5542,  6204
5452, -3653,  5596,  6280
5462, -3705,  5665,  6362
5472, -3748,  5715,  6395
5482, -3727,  5683,  6390
5493, -3686,  5598,  6361
5502, -3655,  5537,  6349
5511, -3668,  5546,  6344
5522, -3685,  5574,  6334
5532, -3682,  5623,  6344
5543, -3715,  5697,  6336
5552, -3738,  5797,  6293
5561, -3716,  5832,  6217
5572, -3696,  5870,  6153
5581, -3738,  5969,  6097
5592, -3762,  6104,  6040
5602, -3739,  6248,  5988
5611, -3724,  6446,  5919
5622, -3680,  6746,  5883
5631, -3672,  7158,  5877
5642, -3695,  7580,  5884
5652, -3700,  7957,  5924
5661, -3702,  8270,  5949
5672, -3736,  8486,  5974
5681, -3824,  8612,  6048
5692, -3956,  8804,  6185
5701, -4132,  9025,  6269
5712, -4272,  9233,  6289
5722, -4280,  9268,  6245
5731, -4151,  9012,  6151
5742, -3982,  8631,  6007
5751, -3814,  8323,  5812
5762, -3648,  8046,  5569
5772, -3456,  7635,  5391
5782, -3337,  7129,  5349
5792, -3343,  6328,  5427
5801, -3408,  5413,  5626
5812, -3479,  4491,  5891
5822, -3560,  3764,  6168
5831, -3653,  3317,  6402
5842, -3683,  3171,  6522
5851, -3619,  3201,  6452
5862, -3412,  3136,  6159
5871, -3097,  2958,  5772
5882, -2828,  2657,  5333
5892, -2577,  2379,  5001
5901, -2468,  2165,  4893
5912, -2649,  2040,  5114
5921, -3092,  1968,  5609
5932, -3721,  2110,  6219
5941, -4410,  2421,  6765
5951, -4921,  2817,  7235
5962, -5206,  3178,  7550
5971, -5283,  3500,  7638
5982, -5185,  3791,  7531
5991, -4975,  3928,  7307
6001, -4706,  3861,  7066
6012, -4451,  3675,  6896
6021, -4330,  3565,  6806
6032, -4284,  3561,  6763
6041, -4229,  3641,  6723
6051, -4171,  3823,  6653
6062, -4068,  4110,  6530
6071, -3904,  4391,  6359
6082, -3704,  4591,  6179
6091, -3550,  4679,  6020
6101, -3454,  4662,  5907
6112, -3420,  4578,  5862
6121, -3429,  4429,  5878
6132, -3470,  4314,  5960
6141, -3539,  4290,  6013
6151, -3540,  4357,  6036
6162, -3476,  4496,  6034
6171, -3443,  4678,  6044
6182, -3421,  4843,  6072
6191, -3416,  4978,  6119
6201, -3428,  5097,  6157
6210, -3420,  5179,  6207
6221, -3408,  5216,  6262
6231, -3442,  5227,  6327
6242, -3488,  5220,  6374
6251, -3488,  5192,  6416
6260, -3496,  5112,  6418
6271, -3493,  5023,  6379
6281, -3442,  4942,  6293
6291, -3327,  4832,  6184
6301, -3235,  4737,  6092
6312, -3218,  4729,  6063
6321, -3240,  4797,  6088
6331, -3282,  4919,  6157
6342, -3352,  5104,  6237
6351, -3411,  5290,  6292
6360, -3433,  5422,  6308
6371, -3444,  5481,  6300
6381, -3453,  5454,  6269
6392, -3446,  5337,  6242
6401, -3435,  5208,  6231
6410, -3463,  5117,  6243
6421, -3508,  5098,  6266
6430, -3545,  5113,  6312
6441, -3610,  5163,  6364
6451, -3656,  5219,  6386
6462, -3644,  5262,  6363
6471, -3583,  5310,  6307
6480, -3519,  5370,  6264
6491, -3517,  5425,  6242
6500, -3550,  5467,  6248
6511, -3567,  5460,  6265
6521, -3582,  5425,  6276
6532, -3600,  5398,  6276
6541, -3596,  5372,  6263
6550, -3579,  5348,  6248
6561, -3556,  5335,  6221
6571, -3513,  5354,  6197
6581, -3478,  5416,  6180
6591, -3449,  5494,  6166
6600, -3407,  5551,  6155
6611, -3359,  5588,  6152
6620, -3284,  5612,  6174
6631, -3194,  5645,  6201
6641, -3077,  5693,  6262
6652, -2925,  5750,  6372
6661, -2779,  5813,  6511
6670, -2602,  5836,  6644
6681, -2392,  5763,  6758
6690, -2214,  5599,  6900
6701, -2072,  5394,  7099
6711, -1977,  5231,  7296
6720, -1849,  5134,  7416
6731, -1600,  5033,  7394
6740, -1266,  4881,  7206
6751,  -861,  4700,  6891
6760,  -437,  4549,  6479
6771,   -37,  4473,  6028
6781,   294,  4483,  5607
6790,   429,  4498,  5322
6801,   298,  4515,  5327
6810,  -161,  4565,  5599
6821,  -813,  4598,  5961
6830, -1364,  4615,  6256
6841, -1739,  4603,  6431
6851, -2008,  4670,  6442
6860, -2277,  4892,  6262
6871, -2480,  5161,  5904
6880, -2576,  5450,  5566
6890, -2870,  5518,  5298
6901, -3300,  5338,  5235
6910, -3831,  5011,  5369
6920, -4465,  4589,  5682
6931, -5177,  4271,  6126
6940, -5950,  4070,  6521
6951, -6543,  4048,  6751
6961, -6786,  4300,  6736
6970, -6749,  4695,  6387
6981, -6489,  5044,  5807
6990, -6068,  5257,  5155
7001, -5628,  5395,  4591
7010, -5414,  5467,  4305
7020, -5592,  5443,  4429
7031, -6047,  5212,  4862
7040, -6592,  4893,  5414
7051, -7058,  4641,  5865
7060, -7262,  4546,  6125
7071, -7205,  4576,  6158
7080, -6989,  4664,  6020
7090, -6707,  4803,  5826
7100, -6426,  4945,  5669
7110, -6192,  5067,  5609
7121, -6028,  5184,  5613
7130, -5833,  5296,  5659
7141, -5651,  5385,  5727
7150, -5490,  5429,  5831
7159, -5332,  5414,  5949
7170, -5154,  5383,  6049
7180, -4972,  5340,  6131
7191, -4786,  5294,  6208
7200, -4627,  5207,  6295
7211, -4510,  5089,  6430
7220, -4471,  4963,  6612
7229, -4488,  4840,  6807
7240, -4512,  4747,  6969
7250, -4499,  4679,  7079
7261, -4451,  4647,  7099
7270, -4344,  4615,  7046
7279, -4190,  4588,  6930
7290, -4031,  4589,  6798
7299, -3896,  4601,  6672
7310, -3797,  4646,  6573
7320, -3751,  4764,  6507
7331, -3754,  4913,  6475
7340, -3794,  5025,  6458
7349, -3846,  5068,  6440
7360, -3892,  5033,  6406
7370, -3945,  4967,  6396
7380, -3991,  4889,  6356
7390, -3977,  4804,  6274
7399, -3905,  4771,  6137
7410, -3814,  4781,  5989
7419, -3756,  4797,  5896
7430, -3766,  4809,  5888
7440, -3826,  4850,  5925
7450, -3906,  4908,  5968
7460, -3967,  4962,  6021
7469, -4033,  4994,  6071
7480, -4066,  5000,  6092
7489, -4053,  5006,  6088
7500, -4030,  5029,  6051
7509, -4007,  5054,  6025
7520, -4014,  5010,  6016
7530, -4026,  4908,  6009
7539, -4016,  4818,  6040
7550, -4059,  4783,  6098
7559, -4130,  4812,  6158
7570, -4195,  4926,  6208
7580, -4247,  5038,  6231
7589, -4258,  5055,  6247
7600, -4258,  5024,  6250
7609, -4243,  5023,  6229
7621, -4212,  5065,  6193
7630, -4181,  5123,  6158
7639, -4177,  5188,  6135
7650, -4197,  5233,  6138
7660, -4234,  5273,  6162
7669, -4278,  5337,  6163
7680, -4286,  5399,  6168
7689, -4298,  5392,  6159
7700, -4324,  5335,  6151
7709, -4323,  5260,  6131
7720, -4285,  5176,  6089
7730, -4228,  5101,  6015
7739, -4152,  5022,  5937
7750, -4070,  4926,  5891
7759, -4058,  4830,  5908
7770, -4094,  4752,  5969
7779, -4145,  4699,  6049
7789, -4181,  4689,  6122
7800, -4198,  4709,  6183
7809, -4214,  4763,  6221
7820, -4211,  4843,  6244
7829, -4209,  4914,  6287
7840, -4236,  4943,  6350
7849, -4251,  4917,  6381
7859, -4225,  4860,  6372
7870, -4172,  4797,  6331
7879, -4129,  4741,  6259
7890, -4082,  4706,  6201
7900, -4042,  4691,  6169
7909, -4031,  4707,  6173
7920, -4045,  4754,  6206
7930, -4095,  4828,  6256
7939, -4140,  4914,  6283
7950, -4160,  5017,  6292
7959, -4181,  5112,  6307
7969, -4206,  5158,  6298
7980, -4190,  5164,  6286
7989, -4162,  5180,  6257
8000, -4141,  5205,  6226
8009, -4131,  5181,  6210
8018, -4126,  5093,  6200
8029, -4123,  5008,  6179
8039, -4108,  4936,  6151
8050, -4078,  4912,  6126
8059, -4055,  4906,  6096
8070, -4039,  4922,  6101
8079, -4064,  4952,  6145
8088, -4134,  4996,  6220
8099, -4229,  5077,  6297
8109, -4291,  5155,  6350
8120, -4304,  5183,  6356
8129, -4274,  5179,  6367
8140, -4265,  5143,  6372
8149, -4249,  5075,  6384
8158, -4234,  5017,  6422
8169, -4257,  4985,  6484
8179, -4306,  4960,  6549
8190, -4328,  4922,  6607
8199, -4330,  4891,  6636
8210, -4319,  4900,  6644
8219, -4325,  4928,  6650
8228, -4333,  4920,  6628
8239, -4305,  4903,  6589
8249, -4252,  4884,  6516
8259, -4177,  4840,  6445
8269, -4108,  4784,  6385
8280, -4060,  4796,  6368
8289, -4053,  4836,  6401
8298, -4101,  4834,  6472
8309, -4189,  4764,  6545
8319, -4263,  4670,  6594
8329, -4315,  4633,  6593
8339, -4341,  4639,  6545
8350, -4354,  4701,  6463
8359, -4377,  4832,  6362
8368, -4395,  5001,  6265
8379, -4414,  5150,  6211
8388, -4475,  5263,  6191
8399, -4539,  5335,  6115
8409, -4485,  5363,  5946
8418, -4328,  5331,  5688
8429, -4149,  5290,  5421
8439, -4004,  5306,  5198
8450, -3901,  5366,  5040
8459, -3842,  5432,  4967
8468, -3876,  5496,  5000
8479, -3966,  5537,  5078
8488, -4018,  5542,  5129
8499, -4002,  5524,  5135
8509, -3956,  5474,  5124
8518, -3934,  5407,  5135
8529, -3942,  5373,  5193
8538, -3993,  5357,  5275
8549, -4048,  5361,  5334
8558, -4050,  5356,  5341
8569, -4001,  5312,  5309
8579, -3937,  5202,  5319
8588, -3957,  5022,  5432
8599, -4068,  4772,  5625
8608, -4203,  4385,  5886
8619, -4331,  3672,  6187
8628, -4533,  2578,  6547
8638, -4788,  1243,  7028
8649, -5078,  -300,  7606
8658, -5406, -1869,  8153
8669, -5781, -3149,  8493
8678, -6012, -4113,  8401
8689, -5893, -4592,  7927
8699, -5587, -4256,  7140
8708, -5135, -3062,  6308
8719, -4637, -1275,  5698
8728, -4242,   657,  5497
8739, -4248,  2300,  5633
8748, -4423,  3370,  5912
8758, -4584,  3911,  6129
8769, -4753,  4193,  6149
8778, -4806,  4465,  5914
8789, -4688,  4990,  5540
8798, -4487,  5742,  5090
8809, -4226,  6460,  4630
8818, -3892,  7009,  4238
8828, -3643,  7471,  3978
8839, -3522,  8058,  3850
8848, -3545,  8908,  3919
8859, -3667,  9972,  4079
8868, -3942, 11072,  4340
8879, -4239, 11854,  4661
8888, -4441, 12123,  4954
8898, -4681, 12062,  5313
8909, -5109, 11780,  5649
8918, -5476, 11146,  6030
8929, -5772, 10382,  6510
8938, -6286,  9863,  7212
8949, -8592,  9667,  9645
8958, -8909,  9720,  9821
8968, -6836,  9638,  8504
8979, -5770,  8952,  7864
8988, -6099,  8083,  7802
8998, -6406,  7382,  7975
9009, -6330,  6865,  7875
9018, -5907,  6530,  7446
9027, -5305,  6287,  6909
9038, -4792,  6020,  6369
9048, -4373,  5758,  5942
9059, -4096,  5527,  5692
9068, -3925,  5334,  5584
9078, -3862,  5168,  5588
9089, -3870,  4955,  5654
9098, -3915,  4761,  5748
9109, -3984,  4647,  5831
9118, -4028,  4575,  5880
9127, -4035,  4599,  5886
9138, -4044,  4733,  5879
9148, -4037,  4898,  5853
9159, -3985,  4976,  5822
9168, -3945,  4993,  5831
9177, -3960,  5053,  5865
9188, -4032,  5099,  5940
9197, -4162,  5052,  6051
9208, -4301,  5030,  6144
9218, -4398,  5023,  6221
9229, -4420,  4978,  6245
9238, -4404,  4958,  6223
9247, -4384,  4968,  6192
9258, -4393,  4997,  6175
9267, -4434,  5051,  6165
9278, -4468,  5099,  6157
9288, -4469,  5094,  6166
9297, -4493,  5130,  6190
9308, -4529,  5197,  6162
9317, -4488,  5201,  6101
9328, -4395,  5173,  6077
9337, -4335,  5163,  6048
9348, -4287,  5161,  6004
9358, -4204,  5130,  5950
9367, -4123,  5121,  5890
9378, -4058,  5163,  5820
9387, -3993,  5187,  5747
9398, -3961,  5120,  5733
9408, -4028,  5013,  5800
9418, -4179,  4931,  5920
9428, -4354,  4840,  6026
9437, -4440,  4707,  6019
9448, -4385,  4591,  5931
9457, -4245,  4566,  5838
9467, -4159,  4645,  5771
9478, -4111,  4783,  5765
9487, -4089,  4963,  5792
9498, -4105,  5143,  5904
9508, -4237,  5317,  6137
9517, -4459,  5476,  6389
9528, -4646,  5550,  6580
9537, -4719,  5540,  6661
9548, -4708,  5494,  6633
9557, -4669,  5403,  6558
9568, -4650,  5314,  6505
9578, -4743,  5233,  6475
9587, -4901,  5136,  6490
9598, -5101,  5034,  6569
9607, -5493,  4856,  6634
9618, -5918,  4686,  6721
9627, -6366,  4567,  6804
9638, -6831,  4461,  6883
9648, -7042,  4416,  6999
9657, -7022,  4221,  7035
9668, -6881,  3878,  6922
9677, -6713,  3622,  6760
9688, -6735,  3574,  6651
9697, -7017,  3755,  6558
9707, -7378,  4139,  6397
9718, -7623,  4718,  6154
9727, -7584,  5447,  5858
9738, -7333,  6032,  5501
9747, -6953,  6398,  5074
9758, -6335,  6787,  4804
9767, -5754,  7194,  4619
9777, -5221,  7399,  4514
9788, -4641,  7325,  4584
9797, -4229,  6966,  4689
9808, -3856,  6512,  4840
9817, -3529,  6114,  5001
9828, -3351,  5694,  5073
9837, -3076,  5415,  5225
9847, -2865,  5316,  5348
9858, -2755,  5209,  5296
9867, -2461,  5239,  5295
9878, -2180,  5499,  5310
9887, -1892,  5744,  5374
9896, -1530,  5956,  5653
9907, -1374,  6033,  5981
9917, -1282,  5969,  6250
9928, -1147,  5875,  6353
9937,  -994,  5769,  6232
9948,  -774,  5589,  6061
9957,  -649,  5141,  6052
9967,  -823,  4623,  6361
9978, -1320,  4230,  6851
9987, -1905,  3988,  7265
9998, -2271,  3827,  7464
10007, -2358,  3805,  7481
10016, -2433,  3972,  7329
10027, -2471,  4187,  7046
10037, -2347,  4488,  6726
10048, -2149,  4841,  6409
10057, -1928,  5166,  6201
10066, -1859,  5403,  6169
10077, -2035,  5521,  6361
10087, -2406,  5618,  6621
10098, -2845,  5687,  6695
10107, -2991,  5665,  6595
10118, -2915,  5553,  6495
10127, -3018,  5332,  6451
10136, -3675,  5072,  7154
10147, -3943,  4964,  7184
10157, -3752,  5021,  7082
10168, -3700,  5018,  6895
10177, -3873,  5012,  6821
10186, -4027,  5078,  6844
10197, -4151,  5205,  6812
10206, -4159,  5288,  6643
10217, -3984,  5267,  6375
10227, -3746,  5160,  6097
10238, -3600,  5069,  5957
10247, -3661,  5040,  5962
10256, -3810,  4984,  6050
10267, -3904,  4897,  6158
10277, -3945,  4800,  6235
10288, -3973,  4723,  6250
10297, -3972,  4717,  6313
10306, -4023,  4843,  6400
10317, -4075,  4972,  6446
10326, -4015,  5032,  6417
10337, -3850,  5074,  6331
10347, -3700,  5161,  6237
10356, -3622,  5251,  6159
10367, -3579,  5285,  6121
10376, -3584,  5258,  6151
10387, -3664,  5225,  6274
10397, -3819,  5202,  6428
10407, -3935,  5175,  6537
10417, -3940,  5154,  6578
10426, -3881,  5171,  6565
10437, -3817,  5213,  6455
10446, -3679,  5236,  6236
10457, -3434,  5225,  5980
10467, -3235,  5235,  5776
10476, -3210,  5237,  5703
10487, -3315,  5308,  5843
10496, -3618,  5558,  6095
10507, -3965,  5959,  6273
10517, -4134,  6321,  6296
10526, -4057,  6596,  6225
10537, -3967,  6877,  6102
10546, -3931,  7194,  6012
10557, -3930,  7542,  5984
10566, -3937,  7818,  5984
10576, -3914,  8067,  6015
10587, -3895,  8368,  6052
10596, -3905,  8717,  6058
10607, -3930,  9044,  6075
10616, -3963,  9244,  6143
10627, -4038,  9251,  6301
10637, -4151,  9116,  6475
10646, -4164,  8804,  6547
10657, -3945,  8505,  6388
10666, -3528,  8264,  5915
10677, -2948,  8013,  5263
10686, -2295,  7819,  4649
10696, -1815,  8040,  4244
10707, -1533,  8272,  4128
10716, -1521,  7711,  4407
10727, -1856,  6513,  5197
10736, -2654,  5196,  6214
10746, -3735,  4184,  7098
10757, -4524,  3629,  7578
10766, -4783,  3342,  7450
10777, -4483,  3231,  6698
10786, -3792,  3044,  5761
10795, -3103,  2603,  5053
10806, -2962,  1829,  4770
10816, -3276,   874,  5025
10827, -3859,   136,  5582
10836, -4469,  -182,  6171
10847, -4838,  -239,  6632
10856, -4975,   -73,  6927
10866, -4988,   237,  7038
10877, -4921,   727,  7027
10886, -4732,  1271,  6917
10897, -4476,  1768,  6797
10906, -4295,  2186,  6746
10915, -4226,  2520,  6774
10926, -4227,  2749,  6834
10936, -4206,  2891,  6860
10947, -4117,  2992,  6846
10956, -4043,  3153,  6815
10967, -3964,  3385,  6737
10976, -3854,  3638,  6624
10986, -3710,  3834,  6502
10996, -3603,  3963,  6388
11006, -3539,  4061,  6272
11015, -3448,  4125,  6154
11026, -3326,  4154,  6004
11036, -3171,  4156,  5849
11047, -3029,  4168,  5731
11056, -2971,  4224,  5692
11065, -3011,  4369,  5730
11076, -3101,  4536,  5824
11085, -3184,  4649,  5979
11096, -3326,  4777,  6174
11106, -3472,  4897,  6347
11117, -3545,  5037,  6477
11126, -3585,  5174,  6560
11135, -3578,  5262,  6578
11146, -3540,  5285,  6570
11156, -3501,  5302,  6537
11167, -3471,  5289,  6490
11176, -3456,  5224,  6468
11185, -3489,  5114,  6451
11196, -3479,  4905,  6397
11205, -3408,  4687,  6309
11216, -3333,  4573,  6248
11226, -3330,  4609,  6229
11235, -3342,  4731,  6223
11246, -3318,  4880,  6217
11255, -3298,  5027,  6215
11266, -3308,  5153,  6224
11276, -3324,  5241,  6237
11285, -3346,  5296,  6269
11296, -3408,  5318,  6336
11305, -3503,  5260,  6433
11316, -3605,  5164,  6518
11326, -3647,  5119,  6518
11336, -3554,  5093,  6438
11346, -3423,  5023,  6322
11355, -3353,  4960,  6236
11366, -3357,  4928,  6210
11375, -3400,  4944,  6218
11386, -3448,  4964,  6230
11396, -3488,  4988,  6244
11405, -3530,  5009,  6231
11416, -3527,  5033,  6182
11425, -3492,  5053,  6096
11436, -3421,  5081,  6007
11445, -3364,  5127,  5933
11455, -3306,  5151,  5890
11466, -3231,  5180,  5894
11475, -3164,  5226,  5910
11486, -3068,  5252,  5955
11495, -2959,  5286,  6071
11505, -2872,  5357,  6236
11516, -2750,  5464,  6453
11525, -2592,  5596,  6669
11536, -2380,  5735,  6869
11545, -2116,  5787,  7023
11556, -1817,  5660,  7227
11566, -1585,  5395,  7479
11575, -1392,  5112,  7699
11586, -1134,  4818,  7830
11595,  -848,  4511,  7890
11606,  -602,  4209,  7861
11615,  -403,  3909,  7797
11625,  -310,  3600,  7756
11636,  -373,  3323,  7774
11645,  -593,  3116,  7802
11656,  -834,  3058,  7765
11665,  -997,  3159,  7641
11675, -1092,  3367,  7473
11686, -1140,  3679,  7296
11695, -1143,  4011,  6980
11706,  -936,  4593,  6604
11715, -1117,  5106,  6426
11726, -1458,  5526,  6181
11735, -1822,  6018,  6118
11745, -1828,  6341,  5700
11756, -1635,  6482,  5192
11765, -1844,  6283,  4921
11776, -2404,  5747,  4949
11785, -3025,  4957,  5164
11795, -3727,  4141,  5533
11806, -4520,  3399,  5862
11815, -4948,  2918,  5928
11826, -5030,  2757,  5785
11835, -5001,  2766,  5435
11844, -5043,  3021,  5166
11855, -5072,  3365,  4793
11865, -5081,  3881,  4611
11876, -5306,  4216,  4491
11885, -5342,  4528,  4523
11894, -5406,  4849,  4524
11905, -5558,  5194,  4499
11915, -5650,  5420,  4508
11925, -5738,  5563,  4496
11935, -5756,  5477,  4511
11946, -5707,  5217,  4621
11955, -6027,  4886,  4976
11964, -6386,  4600,  5438
11975, -6653,  4469,  5800
11985, -6802,  4423,  5949
11996, -6687,  4375,  5832
12005, -6347,  4380,  5508
12014, -5926,  4458,  5167
12025, -5599,  4612,  4966
12034, -5477,  4739,  4996
12045, -5488,  4798,  5232
12055, -5594,  4826,  5566
12066, -5689,  4921,  5881
12075, -5735,  5128,  6129
12084, -5755,  5355,  6313
12095, -5726,  5553,  6449
12105, -5660,  5640,  6520
12115, -5545,  5694,  6575
12125, -5432,  5712,  6574
12134, -5270,  5627,  6552
12145, -5102,  5426,  6506
12154, -4922,  5161,  6435
12165, -4714,  4910,  6297
12175, -4450,  4717,  6103
12185, -4132,  4604,  5910
12195, -3889,  4589,  5839
12204, -3886,  4616,  5950
12215, -4091,  4629,  6200
12224, -4303,  4652,  6504
12235, -4471,  4785,  6749
12244, -4556,  4998,  6903
12255, -4544,  5217,  6955
12265, -4469,  5348,  6920
12274, -4334,  5369,  6830
12285, -4191,  5288,  6679
12294, -4029,  5138,  6481
12305, -3876,  4951,  6271
12315, -3754,  4739,  6069
12324, -3658,  4534,  5911
12335, -3641,  4363,  5856
12344, -3732,  4290,  5917
12355, -3910,  4310,  6047
12364, -4060,  4416,  6162
12375, -4145,  4632,  6203
12385, -4143,  4903,  6179
12394, -4093,  5137,  6127
12405, -4071,  5337,  6094
12414, -4070,  5451,  6082
12425, -4051,  5452,  6090
12435, -4065,  5408,  6105
12444, -4116,  5312,  6119
12455, -4156,  5176,  6142
12464, -4198,  5057,  6142
12475, -4226,  4939,  6114
12484, -4223,  4806,  6109
12494, -4231,  4688,  6099
12505, -4224,  4654,  6078
12514, -4201,  4698,  6055
12525, -4178,  4782,  6044
12535, -4186,  4868,  6062
12544, -4224,  4919,  6099
12555, -4239,  4902,  6133
12564, -4255,  4874,  6172
12575, -4295,  4860,  6206
12585, -4319,  4825,  6245
12594, -4355,  4803,  6272
12605, -4379,  4808,  6273
12614, -4370,  4812,  6245
12625, -4345,  4787,  6199
12634, -4344,  4765,  6170
12644, -4360,  4737,  6157
12655, -4392,  4737,  6203
12664, -4482,  4788,  6284
12675, -4545,  4901,  6378
12684, -4588,  5146,  6475
12694, -4650,  5517,  6596
12705, -4744,  6101,  6762
12714, -4884,  6899,  7053
12725, -5160,  8018,  7438
12734, -5614,  9573,  7744
12743, -5942, 11304,  7880
12754, -6040, 12651,  7618
12764, -5738, 13641,  6788
12775, -4981, 13917,  5454
12784, -3742, 13275,  4024
12795, -2272, 12052,  2983
12804, -1396, 10500,  2508
12814, -1412,  8774,  2702
12825, -2174,  6984,  3410
12834, -3434,  5216,  4244
12845, -4647,  3407,  4944
12854, -5377,  1759,  5423
12863, -5556,   552,  5581
12874, -5279,    26,  5412
12884, -4651,    13,  5160
12895, -4109,   264,  4937
12904, -3693,   713,  4956
12913, -3387,  1270,  5475
12924, -3582,  1652,  6286
12934, -4313,  1914,  7266
12945, -5329,  2307,  8182
12954, -6340,  2808,  8789
12965, -7058,  3369,  9021
12974, -7176,  3939,  8812
12983, -6720,  4413,  8219
12994, -6000,  4742,  7452
13004, -5286,  4913,  6746
13015, -4734,  4833,  6197
13024, -4391,  4409,  5911
13033, -4262,  3844,  5825
13044, -4216,  3408,  5739
13053, -4084,  3103,  5549
13064, -3784,  2966,  5307
13074, -3458,  2944,  5015
13083, -3153,  2985,  4805
13094, -2959,  3039,  4701
13103, -2869,  3124,  4716
13114, -2894,  3204,  4884
13124, -3092,  3199,  5291
13133, -3486,  3234,  5894
13144, -3961,  3409,  6501
13153, -4301,  3665,  6960
13164, -4405,  3856,  7200
13174, -4280,  3910,  7191
13185, -4042,  3920,  7000
13194, -3790,  3958,  6718
13203, -3525,  3996,  6457
13214, -3335,  4021,  6301
13223, -3301,  4044,  6264
13234, -3354,  4096,  6245
13244, -3358,  4161,  6166
13253, -3291,  4262,  5980
13264, -3145,  4399,  5775
13273, -3016,  4580,  5674
13284, -3050,  4746,  5690
13294, -3213,  4829,  5806
13303, -3412,  4857,  6011
13314, -3634,  4798,  6244
13323, -3829,  4679,  6402
13334, -3886,  4584,  6466
13343, -3868,  4569,  6443
13353, -3853,  4612,  6374
13364, -3810,  4700,  6350
13373, -3832,  4808,  6342
13384, -3897,  4934,  6361
13393, -3971,  5050,  6370
13403, -3998,  5106,  6362
13414, -4000,  5087,  6321
13423, -3938,  5041,  6205
13434, -3826,  4989,  6072
13443, -3736,  4981,  5979
13454, -3724,  4997,  5940
13463, -3782,  5021,  5946
13473, -3865,  5062,  6011
13484, -3998,  5074,  6111
13493, -4149,  5087,  6195
13504, -4261,  5100,  6236
13513, -4363,  5095,  6253
13523, -4469,  5069,  6266
13534, -4593,  5018,  6263
13543, -4743,  4931,  6277
13554, -4961,  4754,  6334
13563, -5250,  4413,  6470
13573, -5622,  3942,  6685
13584, -6120,  3404,  6963
13593, -6725,  2950,  7230
13604, -7389,  2693,  7389
13613, -8042,  2695,  7332
13623, -8525,  2995,  7115
13634, -8725,  3509,  6831
13643, -8662,  4041,  6440
13654, -8392,  4484,  5877
13663, -7935,  4876,  5247
13672, -7359,  5099,  4618
13683, -6759,  5064,  4060
13693, -6126,  4882,  3706
13704, -5549,  4772,  3616
13713, -5108,  4883,  3856
13724, -4761,  5141,  4417
13733, -4510,  5476,  5063
13743, -4209,  5773,  5610
13754, -3710,  5823,  5861
13763, -2966,  5720,  5743
13774, -2059,  5744,  5353
13783, -1055,  5951,  4877
13792,  -101,  6348,  4475
13803,   630,  6913,  4285
13813,   940,  7475,  4395
13824,   831,  7931,  4840
13833,   455,  8220,  5571
13842,   -66,  8241,  6444
13853,  -595,  8162,  7230
13863, -1000,  8156,  7758
13874, -1146,  8093,  7964
13883, -1076,  7858,  7906
13892,  -971,  7409,  7654
13903,  -898,  6850,  7300
13912,  -842,  6285,  6943
13923,  -836,  5694,  6585
13933,  -810,  5025,  6269
13944,  -789,  4365,  6067
13953,  -875,  3869,  5984
13962, -1083,  3660,  5998
13973, -1361,  3715,  6084
13983, -1667,  3909,  6224
13994, -2011,  4157,  6385
14003, -2359,  4449,  6560
14012, -2689,  4740,  6718
14023, -2960,  4994,  6822
14032, -3141,  5167,  6902
14044, -3272,  5272,  6965
14053, -3383,  5339,  6944
14062, -3406,  5342,  6834
14073, -3322,  5313,  6663
14083, -3224,  5272,  6464
14092, -3150,  5258,  6284
14103, -3088,  5302,  6150
14112, -3043,  5318,  6064
14123, -3017,  5296,  6026
14133, -3007,  5256,  6003
14142, -3017,  5195,  6015
14153, -3042,  5106,  6054
14162, -3086,  5015,  6113
14173, -3147,  4971,  6183
14182, -3194,  4953,  6279
14193, -3248,  4964,  6339
14203, -3254,  4995,  6338
14212, -3216,  5008,  6314
14223, -3194,  5008,  6289
14232, -3202,  5022,  6264
14243, -3213,  5065,  6258
14253, -3245,  5113,  6281
14262, -3281,  5162,  6297
14273, -3295,  5203,  6335
14282, -3317,  5256,  6417
14293, -3405,  5317,  6519
14302, -3498,  5353,  6640
14312, -3590,  5343,  6749
14323, -3654,  5307,  6785
14332, -3633,  5312,  6739
14343, -3555,  5343,  6643
14352, -3468,  5342,  6541
14362, -3408,  5293,  6485
14373, -3389,  5242,  6453
14382, -3380,  5234,  6402
14393, -3361,  5267,  6344
14402, -3337,  5297,  6303
14412, -3346,  5314,  6271
14423, -3334,  5316,  6218
14432, -3296,  5276,  6191
14443, -3278,  5191,  6190
14452, -3268,  5089,  6184
14463, -3206,  4940,  6165
14472, -3134,  4751,  6162
14482, -3105,  4583,  6164
14493, -3099,  4420,  6149
14502, -3058,  4290,  6132
14513, -3013,  4207,  6099
14522, -2971,  4163,  6052
14532, -2949,  4109,  5988
14543, -2899,  3923,  5900
14552, -2784,  3392,  5844
14563, -2668,  2516,  5874
14572, -2655,  1539,  6027
14582, -2783,   651,  6294
14592, -3025,    32,  6629
14602, -3284,  -407,  6859
14613, -3337,  -807,  6928
14622, -3272, -1128,  6834
14631, -3200, -1336,  6592
14642, -3076, -1195,  6181
14652, -2854,  -639,  5648
14663, -2558,   268,  5178
14672, -2422,  1462,  4890
14683, -2566,  2861,  4805
14692, -2951,  4181,  4903
14702, -3353,  4953,  5145
14712, -3583,  5224,  5538
14722, -3747,  5659,  5785
14733, -3752,  6597,  5755
14742, -3499,  7895,  5584
14751, -3106,  9069,  5441
14762, -2789,  9862,  5405
14772, -2676, 10116,  5506
14783, -2760, 10035,  5753
14792, -2948,  9761,  6122
14801, -3161,  9283,  6571
14812, -3431,  8654,  7020
14821, -3702,  8020,  7450
14832, -3927,  7524,  7806
14842, -4071,  7286,  7984
14853, -4059,  7225,  7955
14862, -3886,  7188,  7724
14871, -3587,  7072,  7388
14882, -3282,  6869,  7073
14892, -3086,  6612,  6850
14902, -3024,  6281,  6731
14912, -3050,  5819,  6697
14921, -3069,  5273,  6726
14932, -3118,  4789,  6797
14941, -3221,  4424,  6857
14952, -3308,  4150,  6832
14962, -3255,  3924,  6679
14973, -3081,  3776,  6430
14982, -2886,  3711,  6153
14991, -2713,  3685,  5937
15002, -2601,  3691,  5807
15011, -2569,  3776,  5746
15022, -2607,  3955,  5749
15032, -2707,  4129,  5835
15041, -2872,  4179,  6009
15052, -3036,  4090,  6205
15061, -3144,  3955,  6296
15072, -3125,  3833,  6235
15082, -2963,  3717,  6095
15092, -2780,  3610,  5990
15102, -2697,  3556,  5978
15111, -2742,  3582,  6066
15122, -2881,  3737,  6221
15131, -3051,  3960,  6377
15142, -3169,  4168,  6516
15152, -3269,  4300,  6642
15162, -3381,  4401,  6715
15172, -3408,  4415,  6689
15181, -3317,  4339,  6575
15192, -3189,  4222,  6410
15201, -3057,  4126,  6264
15212, -2956,  4098,  6174
15222, -2923,  4121,  6133
15231, -2918,  4170,  6147
15242, -2952,  4270,  6175
15251, -2987,  4370,  6197
15262, -3006,  4424,  6247
15271, -3066,  4436,  6314
15281, -3106,  4388,  6378
15292, -3119,  4310,  6445
15301, -3125,  4214,  6480
15312, -3096,  4108,  6498
15321, -3066,  4083,  6502
15332, -3033,  4069,  6472
15342, -2965,  3999,  6437
15351, -2916,  3882,  6418
15362, -2911,  3749,  6453
15372, -2971,  3634,  6509
15381, -3038,  3557,  6547
15392, -3077,  3497,  6527
15401, -3061,  3412,  6446
15411, -2986,  3286,  6309
15422, -2858,  3130,  6141
15431, -2726,  2991,  5970
15441, -2620,  2848,  5845
15452, -2539,  2689,  5774
15461, -2496,  2549,  5764
15472, -2492,  2384,  5792
15481, -2505,  2116,  5764
15492, -2453,  1613,  5673
15501, -2356,   811,  5528
15511, -2265,  -144,  5267
15522, -2077, -1038,  4927
15531, -1824, -1515,  4563
15542, -1645, -1490,  4226
15551, -1601,  -935,  4142
15561, -1808,    -7,  4341
15572, -2203,   911,  4826
15581, -2670,  1808,  5609
15592, -3311,  2698,  6431
15601, -3909,  3361,  7174
15611, -4366,  3936,  7649
15622, -4678,  4472,  7700
15631, -4621,  4862,  7393
15642, -4282,  5095,  6887
15651, -3881,  5202,  6334
15660, -3491,  5205,  5868
15671, -3186,  5345,  5583
15681, -3092,  5557,  5513
15692, -3204,  5738,  5677
15701, -3476,  5752,  5958
15712, -3745,  5767,  6214
15721, -3921,  5996,  6310
15730, -3943,  6132,  6205
15741, -3754,  6028,  6014
15751, -3544,  5890,  5781
15762, -3362,  5921,  5601
15771, -3281,  6067,  5581
15780, -3371,  6178,  5748
15791, -3570,  6253,  6064
15800, -3810,  6333,  6425
15811, -4013,  6345,  6742
15821, -4102,  6208,  6972
15832, -4091,  5975,  7053
15841, -3962,  5712,  6991
15850, -3731,  5442,  6839
15861, -3516,  5190,  6672
15870, -3376,  4919,  6545
15881, -3258,  4674,  6469
15891, -3147,  4463,  6391
15902, -3012,  4276,  6286
15911, -2888,  4149,  6200
15920, -2826,  4070,  6125
15931, -2794,  3983,  6071
15940, -2771,  3940,  6017
15951, -2759,  3935,  5984
15961, -2789,  3961,  5959
15970, -2834,  3999,  5949
15981, -2855,  4032,  5916
15990, -2848,  4059,  5870
16001, -2834,  4080,  5849
16010, -2859,  4089,  5858
16021, -2918,  4107,  5889
16031, -2992,  4131,  5933
16040, -3052,  4125,  5975
16051, -3085,  4131,  6022
16060, -3120,  4130,  6036
16071, -3106,  4099,  6018
16080, -3045,  4048,  5973
16091, -2988,  3981,  5911
16101, -2940,  3878,  5864
16110, -2918,  3778,  5879
16121, -2942,  3731,  5934
16130, -2970,  3760,  6012
16141, -2961,  3858,  6096
16151, -2904,  3970,  6196
16160, -2793,  4086,  6293
16171, -2624,  4223,  6381
16180, -2398,  4342,  6479
16191, -2173,  4421,  6606
16200, -1970,  4481,  6784
16210, -1796,  4499,  7024
16221, -1679,  4469,  7287
16230, -1559,  4464,  7529
16241, -1407,  4543,  7669
16250, -1194,  4665,  7661
16261,  -878,  4867,  7520
16270,  -536,  5130,  7240
16280,  -197,  5328,  6839
16291,   121,  5404,  6352
16300,   406,  5232,  5951
16311,   567,  4949,  5899
16320,   260,  4555,  6338
16331,  -445,  4198,  7187
16340, -1382,  3953,  8080
16350, -2188,  3834,  8694
16361, -2543,  3820,  8819
16370, -2497,  3936,  8430
16381, -2218,  4163,  7689
16390, -1779,  4453,  6812
16400, -1298,  4804,  5888
16411,  -911,  5190,  4979
16420,  -635,  5506,  4403
16431,  -787,  5690,  4534
16440, -1757,  5861,  5176
16451, -3209,  6128,  5833
16460, -4475,  6287,  6112
16470, -5045,  6186,  5857
16480, -5115,  5838,  5011
16490, -4900,  5463,  3838
16501, -4524,  5126,  2674
16510, -4133,  4644,  1920
16521, -4112,  4138,  1966
16530, -4874,  3626,  2713
16540, -6027,  3298,  3862
16551, -7142,  3247,  5033
16560, -7876,  3328,  5993
16571, -8070,  3478,  6628
16580, -7895,  3654,  6924
16589, -7526,  3788,  7005
16600, -7057,  3963,  6986
16610, -6620,  4166,  6952
16621, -6214,  4410,  6945
16630, -5890,  4637,  6971
16639, -5621,  4784,  7025
16650, -5393,  4860,  7050
16660, -5152,  4942,  7006
16671, -4899,  4972,  6901
16680, -4633,  4893,  6739
16691, -4340,  4764,  6545
16700, -4068,  4646,  6349
16709, -3842,  4562,  6192
16720, -3676,  4524,  6117
16730, -3611,  4622,  6084
16741, -3595,  4793,  6080
16750, -3547,  4920,  6112
16759, -3503,  5040,  6156
16770, -3503,  5135,  6171
16779, -3480,  5150,  6157
16790, -3422,  5114,  6108
16800, -3397,  5066,  6026
16811, -3375,  5035,  5964
16820, -3384,  4998,  5949
16829, -3418,  4972,  5989
16840, -3480,  4938,  6044
16849, -3527,  4878,  6070
16860, -3526,  4813,  6065
16870, -3522,  4762,  6048
16879, -3532,  4699,  6025
16890, -3541,  4651,  6021
16899, -3556,  4682,  6054
16910, -3581,  4831,  6109
16919, -3618,  4999,  6179
16930, -3627,  5128,  6278
16940, -3669,  5209,  6391
16949, -3748,  5269,  6502
16960, -3833,  5309,  6602
16969, -3892,  5296,  6653
16980, -3889,  5202,  6618
16989, -3786,  5053,  6520
17000, -3657,  4887,  6380
17010, -3561,  4759,  6243
17019, -3497,  4680,  6115
17030, -3453,  4595,  6022
17039, -3418,  4503,  5956
17050, -3415,  4484,  5916
17060, -3456,  4593,  5898
17069, -3520,  4800,  5903
17080, -3585,  5052,  5948
17089, -3663,  5355,  5988
17100, -3732,  5709,  6020
17110, -3804,  6126,  6064
17119, -3901,  6598,  6133
17130, -4020,  7132,  6266
17139, -4187,  7825,  6485
17150, -4379,  8729,  6790
17159, -4602,  9878,  7147
17169, -4871, 11042,  7483
17180, -5138, 11938,  7773
17189, -5401, 12286,  7968
17200, -5575, 12027,  8027
17209, -5576, 11327,  7924
17220, -5388, 10262,  7653
17229, -5064,  9020,  7268
17239, -4724,  7940,  6732
17250, -4362,  7229,  6127
17259, -4033,  6906,  5532
17270, -3809,  6545,  4963
17279, -3563,  5826,  4568
17289, -3409,  4786,  4370
17299, -3423,  3648,  4303
17309, -3451,  2488,  4393
17320, -3550,  1442,  4715
17329, -3863,   574,  5224
17340, -4278,  -140,  5786
17349, -4577,  -612,  6232
17359, -4633,  -892,  6399
17370, -4399, -1048,  6276
17379, -4020, -1104,  5991
17390, -3648, -1127,  5717
17399, -3377, -1056,  5547
17408, -3266,  -769,  5502
17419, -3248,  -273,  5549
17429, -3287,   353,  5653
17440, -3352,  1025,  5778
17449, -3407,  1713,  5885
17460, -3436,  2370,  5957
17469, -3462,  3029,  5991
17479, -3466,  3633,  5959
17489, -3419,  4104,  5905
17499, -3384,  4388,  5883
17510, -3420,  4477,  5906
17519, -3490,  4532,  5994
17528, -3599,  4623,  6101
17539, -3707,  4739,  6199
17549, -3777,  4813,  6268
17560, -3794,  4803,  6286
17569, -3791,  4782,  6275
17580, -3778,  4743,  6282
17589, -3802,  4758,  6316
17598, -3843,  4839,  6334
17609, -3848,  4959,  6390
17619, -3891,  5040,  6478
17630, -3958,  5088,  6586
17639, -4015,  5119,  6634
17649, -4006,  5116,  6618
17660, -3975,  5067,  6569
17669, -3958,  5017,  6504
17679, -3916,  4988,  6448
17690, -3866,  4982,  6406
17699, -3814,  4997,  6349
17708, -3752,  5037,  6280
17719, -3727,  5102,  6257
17729, -3784,  5147,  6307
17738, -3892,  5160,  6399
17749, -3992,  5147,  6491
17759, -4041,  5101,  6533
17768, -4034,  5062,  6521
17779, -4014,  5095,  6469
17789, -3981,  5138,  6403
17798, -3949,  5106,  6358
17809, -3946,  4977,  6314
17818, -3931,  4829,  6250
17830, -3911,  4735,  6155
17839, -3891,  4681,  6068
17848, -3944,  4650,  5997
17859, -4030,  4614,  5916
17869, -4116,  4530,  5809
17878, -4227,  4371,  5714
17889, -4460,  4106,  5647
17899, -4821,  3771,  5621
17908, -5382,  3423,  5621
17919, -6129,  3138,  5624
17929, -6948,  2975,  5652
17938, -7686,  2908,  5777
17949, -8422,  2909,  6033
17959, -9096,  3116,  6402
17968, -9689,  3446,  6616
17979, -9901,  3695,  6532
17988, -9602,  3645,  6197
17998, -9008,  3348,  5679
18009, -8284,  3039,  5047
18018, -7479,  2827,  4394
18028, -6585,  2812,  3919
18039, -5843,  3073,  3704
18048, -5343,  3441,  3835
18059, -5038,  3758,  4364
18069, -4895,  4008,  5174
18078, -4696,  4213,  6060
18089, -4288,  4437,  6720
18099, -3568,  4813,  6936
18108, -2616,  5330,  6758
18119, -1505,  5892,  6407
18128,  -475,  6466,  6109
18138,   226,  7031,  6019
18149,   470,  7502,  6128
18158,   442,  7699,  6376
18168,   377,  7575,  6690
18179,   297,  7307,  6950
18188,   213,  6951,  7086
18198,   196,  6533,  7096
18209,   224,  6151,  6956
18218,   307,  5957,  6727
18229,   380,  5967,  6450
18238,   418,  5967,  6184
18248,   372,  5832,  5983
18259,   193,  5609,  5932
18268,  -101,  5444,  6053
18279,  -517,  5266,  6289
18288,  -982,  4950,  6576
18299, -1418,  4560,  6818
18308, -1797,  4189,  6938
18318, -2063,  3855,  6958
18328, -2261,  3606,  6856
18338, -2391,  3458,  6726
18349, -2513,  3447,  6669
18358, -2733,  3552,  6681
18369, -2955,  3718,  6750
18378, -3126,  3915,  6795
18387, -3225,  4099,  6771
18398, -3260,  4234,  6683
18408, -3272,  4317,  6568
18419, -3289,  4372,  6424
18428, -3311,  4474,  6265
18439, -3308,  4655,  6101
18448, -3293,  4878,  5934
18457, -3251,  5076,  5802
18468, -3237,  5224,  5737
18478, -3279,  5320,  5739
18488, -3328,  5311,  5765
18498, -3361,  5226,  5791
18509, -3388,  5132,  5789
18518, -3407,  5056,  5789
18527, -3437,  5000,  5812
18538, -3508,  4929,  5874
18547, -3602,  4871,  5955
18558, -3641,  4830,  6022
18568, -3630,  4799,  6027
18579, -3566,  4777,  6016
18588, -3514,  4747,  6032
18598, -3521,  4699,  6099
18607, -3568,  4657,  6282
18618, -3673,  4663,  6507
18628, -3740,  4682,  6691
18637, -3664,  4693,  6799
18648, -3507,  4714,  6835
18658, -3350,  4725,  6788
18668, -3199,  4694,  6687
18678, -3074,  4614,  6585
18687, -3036,  4515,  6489
18698, -3061,  4390,  6426
18708, -3139,  4270,  6404
18717, -3290,  4241,  6357
18728, -3404,  4336,  6238
18738, -3448,  4517,  6072
18747, -3453,  4748,  5896
18758, -3423,  5040,  5768
18768, -3382,  5432,  5728
18777, -3351,  6023,  5770
18788, -3344,  6839,  5901
18797, -3348,  7751,  6128
18807, -3308,  8676,  6447
18818, -3162,  9639,  6850
18827, -2936, 10662,  7231
18838, -2638, 11754,  7472
18848, -2199, 12797,  7574
18857, -1752, 13687,  7514
18868, -1413, 14400,  7350
18878, -1290, 14710,  7108
18887, -1418, 14359,  6787
18898, -1692, 13645,  6412
18908, -2253, 12711,  5578
18917, -2525, 11561,  4369
18928, -2283, 10013,  3359
18938, -2337,  7260,  2766
18947, -2954,  3621,  2942
18958, -4031,  -155,  3714
18967, -5338, -3206,  4628
18977, -6346, -4843,  5521
18988, -6907, -5205,  6308
18997, -7243, -4898,  6901
19007, -7428, -4362,  7264
19018, -7361, -3643,  7410
19027, -7098, -2769,  7300
19038, -6676, -1817,  7045
19048, -6222,  -897,  6672
19057, -5756,   -83,  6236
19068, -5244,   644,  5742
19078, -4685,  1397,  5279
19087, -4212,  2283,  4898
19098, -3902,  3308,  4636
19108, -3720,  4309,  4563
19117, -3669,  5149,  4701
19128, -3768,  5806,  4999
19137, -3966,  6268,  5376
19147, -4154,  6538,  5729
19158, -4261,  6576,  6005
19167, -4282,  6449,  6179
19177, -4221,  6212,  6283
19188, -4149,  5925,  6381
19197, -4129,  5617,  6460
19207, -4091,  5327,  6520
19218, -4010,  5091,  6544
19227, -3935,  4899,  6568
19237, -3889,  4762,  6633
19248, -3890,  4639,  6699
19257, -3890,  4517,  6772
19266, -3873,  4409,  6847
19278, -3848,  4333,  6904
19287, -3799,  4346,  6926
19298, -3718,  4409,  6912
19307, -3638,  4419,  6905
19317, -3602,  4324,  6945
19328, -3612,  4206,  7024
19337, -3618,  4147,  7059
19347, -3573,  4118,  7011
19358, -3437,  4122,  6894
19367, -3304,  4225,  6751
19377, -3241,  4398,  6617
19388, -3227,  4597,  6528
19397, -3249,  4747,  6480
19406, -3276,  4847,  6446
19417, -3307,  4924,  6425
19427, -3313,  4976,  6381
19436, -3280,  4991,  6298
19447, -3213,  4952,  6195
19457, -3147,  4885,  6089
19466, -3097,  4818,  5987
19477, -3046,  4772,  5893
19487, -2986,  4739,  5832
19498, -2949,  4732,  5825
19507, -2971,  4730,  5886
19517, -2998,  4702,  5991
19528, -3017,  4690,  6148
19537, -3050,  4710,  6353
19547, -3067,  4709,  6583
19558, -3042,  4677,  6821
19567, -2998,  4626,  7006
19576, -2886,  4539,  7112
19588, -2681,  4390,  7156
19597, -2440,  4227,  7149
19606, -2143,  4051,  7120
19617, -1847,  3915,  7101
19627, -1596,  3862,  7130
19636, -1458,  3899,  7204
19647, -1363,  3968,  7279
19657, -1222,  3967,  7275
19666, -1024,  3974,  7164
19677,  -777,  4042,  6934
19687,  -507,  4036,  6627
19696,  -236,  4009,  6314
19707,   -31,  4043,  6011
19716,    96,  4142,  5807
19727,   138,  4316,  5759
19737,   -27,  4576,  5908
19748,  -340,  4871,  6215
19757,  -729,  5173,  6555
19766, -1083,  5489,  6794
19777, -1340,  5841,  6844
19786, -1485,  6031,  6681
19797, -1517,  5981,  6359
19806, -1544,  5831,  6016
19817, -1725,  5642,  5846
19827, -2193,  5529,  5821
19836, -2750,  5483,  5856
19847, -3258,  5543,  5859
19856, -3836,  5680,  5640
19867, -4362,  5866,  5140
19876, -4651,  6000,  4482
19887, -4966,  5792,  3868
19896, -5433,  5278,  3475
19906, -5929,  4673,  3428
19917, -6410,  4114,  3698
19926, -6855,  3669,  4177
19937, -7240,  3316,  4711
19946, -7485,  3043,  5152
19957, -7591,  2912,  5363
19966, -7329,  2927,  5226
19976, -6754,  3004,  4842
19987, -6075,  3118,  4480
19996, -5601,  3280,  4375
20006, -5461,  3521,  4593
20017, -5555,  3820,  5075
20026, -5722,  4117,  5672
20037, -5865,  4353,  6215
20047, -5966,  4513,  6651
20056, -5928,  4647,  6939
20067, -5788,  4769,  7084
20077, -5579,  4877,  7147
20086, -5359,  4941,  7160
20096, -5149,  4982,  7155
20107, -4939,  5004,  7103
20116, -4733,  4922,  7028
20127, -4565,  4738,  6943
20136, -4412,  4584,  6872
20145, -4282,  4547,  6756
20156, -4112,  4592,  6626
20166, -3948,  4672,  6540
20177, -3867,  4741,  6510
20186, -3831,  4732,  6522
20197, -3774,  4670,  6518
20206, -3693,  4580,  6486
20217, -3606,  4485,  6443
20226, -3540,  4426,  6468
20236, -3580,  4410,  6562
20246, -3653,  4417,  6684
20256, -3651,  4414,  6746
20267, -3583,  4372,  6723
20276, -3471,  4288,  6640
20287, -3350,  4173,  6497
20296, -3229,  4105,  6365
20305, -3194,  4128,  6299
20316, -3267,  4181,  6340
20326, -3429,  4192,  6498
20337, -3625,  4163,  6708
20346, -3805,  4169,  6851
20357, -3856,  4178,  6852
20366, -3789,  4125,  6722
20375, -3678,  3958,  6509
20386, -3573,  3711,  6320
20396, -3507,  3499,  6164
20406, -3534,  3285,  6044
20416, -3590,  3022,  5993
20427, -3676,  2749,  6072
20436, -3908,  2544,  6251
20445, -4176,  2410,  6459
20456, -4376,  2267,  6630
20466, -4551,  2078,  6715
20476, -4624,  1897,  6682
20486, -4516,  1712,  6515
20497, -4227,  1387,  6231
20506, -3801,   939,  5873
20515, -3330,   437,  5631
20526, -3060,   245,  5502
20535, -3041,   490,  5359
20546, -2991,  1053,  5190
20556, -2849,  1719,  5071
20567, -2740,  2381,  5072
20576, -2696,  2957,  5159
20585, -2655,  3269,  5245
20596, -2638,  3321,  5351
20605, -2674,  3154,  5536
20616, -2812,  2902,  5769
20626, -3108,  2701,  5958
20636, -3364,  2661,  6211
20646, -3625,  2822,  6480
20655, -3840,  3012,  6630
20666, -3830,  2938,  6598
20675, -3630,  2645,  6371
20686, -3363,  2225,  5890
20696, -2985,  1851,  5299
20705, -2541,  1823,  4719
20716, -2100,  2366,  4314
20725, -1794,  3346,  4224
20736, -1796,  4405,  4457
20746, -2077,  5261,  4976
20755, -2502,  5732,  5487
20766, -2799,  5751,  5747
20775, -2831,  5451,  5787
20786, -2636,  5113,  5578
20795, -2386,  5152,  5329
20806, -2234,  5581,  5166
20815, -2192,  6003,  5119
20825, -2301,  6328,  5239
20836, -2577,  6524,  5544
20845, -2951,  6736,  5933
20856, -3393,  7083,  6358
20865, -3836,  7551,  6731
20876, -4178,  8122,  6981
20886, -4393,  8624,  7121
20895, -4517,  8930,  7164
20906, -4539,  8960,  7194
20915, -4543,  8862,  7228
20925, -4580,  8750,  7231
20936, -4559,  8549,  7229
20945, -4512,  8248,  7206
20955, -4452,  7834,  7125
20966, -4355,  7295,  7015
20975, -4248,  6674,  6937
20986, -4094,  6149,  6817
20995, -3933,  5678,  6712
21005, -3812,  5309,  6624
21016, -3720,  5083,  6584
21025, -3698,  4986,  6579
21035, -3650,  4974,  6546
21046, -3578,  4974,  6480
21055, -3481,  4988,  6401
21065, -3396,  5027,  6346
21076, -3341,  5061,  6342
21085, -3317,  5007,  6365
21095, -3330,  4898,  6384
21106, -3326,  4768,  6351
21115, -3271,  4639,  6259
21124, -3191,  4528,  6147
21135, -3111,  4445,  6048
21145, -3056,  4400,  5977
21154, -3033,  4365,  5940
21165, -3037,  4391,  5922
21175, -3056,  4439,  5927
21186, -3111,  4469,  5961
21195, -3196,  4489,  6025
21205, -3302,  4498,  6102
21216, -3398,  4468,  6175
21225, -3443,  4526,  6238
21235, -3479,  4624,  6284
21246, -3507,  4691,  6331
21255, -3542,  4695,  6365
21265, -3572,  4702,  6387
21276, -3594,  4690,  6404
21285, -3606,  4728,  6410
21294, -3638,  4710,  6422
21306, -3697,  4650,  6447
21315, -3767,  4650,  6440
21324, -3832,  4629,  6410
21335, -3903,  4547,  6421
21345, -4029,  4491,  6438
21354, -4173,  4479,  6445
21365, -4310,  4471,  6431
21375, -4468,  4475,  6378
21384, -4656,  4427,  6262
21395, -4871,  4269,  6080
21405, -5096,  4103,  5931
21414, -5393,  3804,  5806
21425, -5714,  3431,  5734
21435, -6042,  3120,  5661
21446, -6302,  2908,  5614
21455, -6555,  2836,  5564
21464, -6773,  2835,  5438
21475, -6837,  2751,  5219
21485, -6702,  2609,  4983
21494, -6500,  2761,  4841
21505, -6425,  3358,  4823
21514, -6414,  4096,  4946
21525, -6448,  4698,  5198
21535, -6579,  5125,  5524
21545, -6693,  5448,  5948
21555, -6744,  5774,  6379
21564, -6707,  6028,  6626
21575, -6297,  6149,  6635
21585, -5415,  6198,  6418
21594, -4401,  6279,  6000
21605, -3382,  6275,  5535
21615, -2314,  6228,  5275
21625, -1562,  6174,  5219
21635, -1141,  6131,  5384
21644,  -823,  6276,  5765
21655,  -645,  6649,  6122
21665,  -413,  6898,  6299
21674,    -5,  6874,  6392
21685,   318,  6662,  6392
21694,   559,  6252,  6178
21705,  1035,  5637,  5950
21715,  1448,  5141,  5826
21724,  1553,  4723,  5830
21735,  1389,  4305,  6055
21744,  1011,  3918,  6446
21755,   455,  3689,  6839
21764,  -100,  3628,  7143
21774,  -540,  3691,  7311
21785,  -871,  3845,  7328
21794, -1108,  4004,  7210
21805, -1252,  4159,  7019
21814, -1355,  4328,  6762
21825, -1446,  4462,  6488
21835, -1554,  4497,  6292
21844, -1793,  4466,  6247
21855, -2189,  4428,  6393
21864, -2687,  4375,  6656
21875, -3189,  4311,  6909
21884, -3597,  4266,  7068
21894, -3827,  4258,  7088
21905, -3829,  4295,  6974
21914, -3720,  4405,  6815
21925, -3651,  4534,  6633
21934, -3552,  4637,  6463
21945, -3427,  4679,  6309
21954, -3336,  4703,  6176
21964, -3276,  4737,  6074
21975, -3253,  4750,  6046
21984, -3305,  4812,  6060
21995, -3362,  4891,  6088
22004, -3358,  4976,  6120
22014, -3353,  5069,  6124
22025, -3323,  5165,  6131
22034, -3317,  5218,  6129
22045, -3311,  5251,  6128
22054, -3312,  5263,  6100
22065, -3267,  5249,  6024
22074, -3171,  5194,  5960
22084, -3135,  5186,  5965
22095, -3231,  5209,  6059
22104, -3388,  5209,  6218
22115, -3528,  5236,  6396
22124, -3658,  5313,  6513
22134, -3732,  5391,  6533
22145, -3706,  5481,  6461
22154, -3630,  5593,  6354
22165, -3570,  5790,  6285
22174, -3594,  6068,  6282
22183, -3675,  6371,  6347
22194, -3791,  6657,  6441
22204, -3897,  6924,  6521
22215, -3987,  7242,  6565
22224, -4087,  7640,  6605
22233, -4196,  8184,  6705
22244, -4315,  8821,  6888
22254, -4538,  9371,  7128
22265, -4915,  9743,  7374
22274, -5257,  9953,  7582
22285, -5468,  9907,  7663
22294, -5483,  9679,  7666
22304, -5363,  9324,  7542
22313, -5147,  8891,  7193
22325, -4710,  8419,  6738
22334, -4144,  7871,  6297
22343, -3671,  7160,  5917
22353, -3294,  6200,  5641
22364, -2961,  4949,  5511
22374, -2702,  3523,  5545
22383, -2642,  2144,  5654
22395, -2664,  1326,  5798
22404, -2834,  1377,  5922
22413, -3053,  2313,  5929
22423, -3052,  4054,  5732
22434, -2731,  5581,  5345
22444, -2232,  5730,  4883
22453, -1761,  4324,  4578
22465, -1562,  2285,  4654
22474, -1782,   616,  5012
22484, -2157,  -403,  5478
22494, -2491,  -886,  5952
22504, -2722,  -871,  6367
22514, -2857,  -460,  6612
22523, -2786,   132,  6620
22534, -2510,   645,  6505
22544, -2268,   987,  6400
22553, -2203,  1125,  6352
22564, -2264,  1166,  6317
22574, -2282,  1197,  6232
22584, -2220,  1270,  6069
22593, -2102,  1437,  5870
22604, -1965,  1729,  5638
22614, -1834,  2068,  5382
22623, -1676,  2376,  5148
22634, -1547,  2662,  4946
22644, -1454,  2943,  4804
22653, -1406,  3179,  4737
22663, -1426,  3353,  4762
22674, -1520,  3494,  4861
22684, -1657,  3676,  5001
22693, -1763,  3869,  5185
22704, -1915,  4045,  5463
22714, -2163,  4221,  5776
22723, -2394,  4429,  6052
22733, -2508,  4646,  6240
22744, -2539,  4814,  6342
22753, -2535,  4876,  6400
22763, -2544,  4858,  6442
22774, -2547,  4786,  6470
22784, -2527,  4695,  6457
22793, -2486,  4594,  6426
22803, -2439,  4548,  6395
22814, -2418,  4510,  6343
22823, -2361,  4462,  6293
22833, -2320,  4436,  6244
22844, -2291,  4438,  6185
22853, -2225,  4392,  6114
22863, -2157,  4325,  6092
22874, -2175,  4282,  6111
22883, -2220,  4242,  6169
22894, -2257,  4261,  6254
22904, -2307,  4368,  6337
22913, -2359,  4498,  6399
22923, -2375,  4579,  6440
22934, -2364,  4616,  6428
22943, -2303,  4673,  6363
22953, -2194,  4721,  6280
22963, -2079,  4697,  6206
22974, -2003,  4677,  6176
22983, -1952,  4717,  6179
22993, -1895,  4799,  6228
23004, -1859,  4892,  6313
23014, -1845,  4968,  6410
23023, -1808,  5033,  6502
23033, -1711,  5022,  6557
23044, -1572,  4972,  6605
23053, -1424,  4875,  6640
23063, -1237,  4748,  6701
23074, -1065,  4657,  6819
23083,  -965,  4628,  6964
23093,  -878,  4620,  7066
23102,  -750,  4542,  7053
23114,  -544,  4384,  6870
23123,  -258,  4205,  6543
23133,    74,  4074,  6136
23142,   410,  3992,  5715
23153,   694,  3993,  5360
23163,   869,  4107,  5178
23172,   855,  4339,  5184
23183,   655,  4650,  5333
23193,   436,  5043,  5557
23202,   245,  5411,  5735
23214,   125,  5727,  5818
23223,   101,  5974,  5860
23233,    91,  6100,  5853
23244,    69,  6140,  5801
23253,    30,  6116,  5653
23263,    -4,  5908,  5540
23274,  -197,  5559,  5690
23283,  -769,  5183,  6075
23292, -1464,  4862,  6501
23303, -2010,  4631,  6868
23313, -2370,  4447,  6981
23322, -2509,  4300,  6837
23333, -2520,  4191,  6527
23343, -2525,  4076,  6140
23352, -2588,  4037,  5769
23363, -2734,  4103,  5436
23373, -2917,  3995,  5202
23382, -3190,  3572,  5175
23393, -3625,  3088,  5280
23403, -4057,  2834,  5371
23412, -4287,  2784,  5374
23423, -4366,  2883,  5318
23433, -4445,  3007,  5279
23442, -4584,  3054,  5314
23453, -4783,  3102,  5425
23463, -4998,  3143,  5567
23472, -5143,  3252,  5762
23482, -5277,  3424,  5951
23493, -5380,  3565,  6141
23503, -5431,  3706,  6293
23512, -5442,  3819,  6393
23523, -5397,  3875,  6437
23533, -5260,  3903,  6422
23542, -5085,  3988,  6412
23552, -4931,  4144,  6441
23563, -4790,  4281,  6497
23573, -4646,  4371,  6544
23582, -4471,  4418,  6553
23593, -4278,  4433,  6494
23602, -4037,  4417,  6401
23613, -3786,  4358,  6301
23623, -3594,  4341,  6236
23632, -3446,  4336,  6190
23643, -3290,  4325,  6184
23652, -3190,  4364,  6204
23663, -3161,  4446,  6239
23672, -3137,  4521,  6300
23683, -3103,  4578,  6339
23693, -3021,  4610,  6338
23702, -2889,  4622,  6301
23713, -2745,  4636,  6227
23722, -2591,  4633,  6117
23733, -2434,  4628,  6030
23743, -2374,  4624,  6026
23752, -2418,  4622,  6082
23763, -2474,  4608,  6172
23772, -2528,  4602,  6258
23783, -2551,  4599,  6308
23792, -2543,  4613,  6316
23802, -2513,  4638,  6269
23813, -2459,  4636,  6192
23822, -2430,  4633,  6135
23833, -2445,  4664,  6094
23842, -2486,  4673,  6085
23852, -2540,  4665,  6094
23863, -2593,  4663,  6132
23872, -2641,  4659,  6170
23883, -2676,  4637,  6182
23892, -2676,  4609,  6169
23903, -2635,  4600,  6112
23912, -2569,  4574,  6032
23922, -2509,  4551,  5972
23933, -2499,  4562,  5928
23942, -2501,  4580,  5880
23953, -2472,  4581,  5837
23962, -2433,  4559,  5798
23971, -2405,  4503,  5754
23982, -2374,  4409,  5716
23992, -2339,  4323,  5740
24003, -2357,  4282,  5796
24012, -2414,  4310,  5865
24023, -2461,  4387,  5914
24032, -2486,  4472,  5948
24042, -2506,  4548,  5983
24052, -2552,  4581,  6018
24062, -2599,  4527,  6054
24073, -2615,  4423,  6093
24082, -2621,  4309,  6094
24091, -2601,  4225,  6088
24102, -2570,  4208,  6095
24112, -2586,  4255,  6129
24123, -2632,  4344,  6184
24132, -2682,  4467,  6262
24143, -2727,  4587,  6313
24152, -2733,  4700,  6352
24161, -2719,  4793,  6396
24172, -2739,  4846,  6436
24182, -2761,  4859,  6454
24193, -2755,  4824,  6423
24202, -2695,  4751,  6317
24211, -2578,  4648,  6155
24222, -2421,  4533,  5996
24231, -2300,  4465,  5890
24242, -2261,  4451,  5864
24252, -2314,  4422,  5910
24263, -2427,  4392,  5998
24272, -2552,  4395,  6076
24281, -2619,  4422,  6135
24292, -2654,  4454,  6189
24302, -2690,  4460,  6235
24312, -2698,  4423,  6252
24322, -2670,  4309,  6265
24331, -2650,  4122,  6288
24342, -2640,  3943,  6312
24351, -2636,  3885,  6340
24362, -2591,  3910,  6339
24372, -2531,  3964,  6334
24383, -2517,  4030,  6339
24392, -2544,  4113,  6348
24401, -2561,  4203,  6351
24412, -2559,  4287,  6325
24421, -2556,  4327,  6305
24432, -2556,  4341,  6314
24442, -2586,  4337,  6321
24451, -2596,  4326,  6321
24462, -2594,  4337,  6336
24471, -2603,  4375,  6344
24482, -2629,  4420,  6342
24492, -2657,  4457,  6318
24501, -2665,  4513,  6283
24512, -2666,  4569,  6238
24521, -2663,  4606,  6216
24532, -2672,  4607,  6211
24541, -2704,  4599,  6239
24552, -2737,  4567,  6263
24562, -2761,  4541,  6276
24571, -2775,  4517,  6278
24582, -2823,  4499,  6309
24591, -2892,  4505,  6343
24602, -2933,  4544,  6373
24611, -2937,  4600,  6366
24622, -2896,  4617,  6319
24632, -2819,  4582,  6253
24641, -2758,  4536,  6186
24652, -2707,  4492,  6146
24661, -2701,  4461,  6153
24671, -2735,  4488,  6198
24682, -2772,  4546,  6228
