time,accx,accy,accz
8,  4376,   -30, -1036
18,  4389,   -46, -1039
29,  4392,   -43, -1047
38,  4392,   -42, -1055
47,  4388,   -44, -1062
58,  4390,   -66, -1074
68,  4397,   -82, -1077
79,  4406,   -88, -1082
88,  4402,   -89, -1079
97,  4406,   -88, -1070
108,  4409,   -98, -1072
118,  4414,  -107, -1073
129,  4420,  -112, -1079
138,  4425,  -129, -1084
147,  4427,  -135, -1096
158,  4428,  -143, -1115
167,  4430,  -157, -1124
178,  4433,  -167, -1132
188,  4430,  -174, -1144
197,  4437,  -179, -1146
208,  4440,  -190, -1148
217,  4442,  -192, -1148
228,  4446,  -198, -1155
238,  4453,  -205, -1156
247,  4453,  -215, -1157
258,  4460,  -224, -1158
267,  4469,  -230, -1161
278,  4467,  -235, -1165
288,  4473,  -241, -1172
297,  4478,  -251, -1176
308,  4479,  -262, -1185
317,  4482,  -266, -1192
328,  4479,  -270, -1202
337,  4475,  -272, -1208
347,  4477,  -282, -1216
358,  4483,  -297, -1220
367,  4492,  -292, -1231
378,  4492,  -296, -1236
387,  4496,  -312, -1247
398,  4502,  -317, -1249
408,  4503,  -321, -1252
417,  4502,  -316, -1247
428,  4506,  -327, -1244
437,  4509,  -341, -1248
448,  4517,  -344, -1254
457,  4516,  -353, -1265
467,  4514,  -368, -1275
478,  4516,  -372, -1289
487,  4519,  -378, -1298
498,  4521,  -382, -1301
507,  4524,  -385, -1302
518,  4525,  -392, -1307
527,  4532,  -399, -1314
537,  4530,  -402, -1320
548,  4536,  -402, -1320
557,  4538,  -411, -1324
568,  4542,  -420, -1324
577,  4549,  -426, -1331
588,  4552,  -433, -1339
597,  4553,  -440, -1345
608,  4557,  -446, -1350
617,  4561,  -451, -1353
627,  4558,  -462, -1359
638,  4559,  -470, -1364
647,  4556,  -473, -1374
658,  4558,  -481, -1384
667,  4557,  -488, -1387
676,  4554,  -497, -1397
687,  4553,  -499, -1391
697,  4560,  -505, -1393
708,  4567,  -508, -1403
717,  4570,  -513, -1416
728,  4572,  -518, -1424
737,  4576,  -525, -1430
746,  4580,  -530, -1429
757,  4584,  -531, -1440
767,  4586,  -533, -1444
778,  4585,  -540, -1446
787,  4587,  -545, -1452
798,  4587,  -549, -1462
807,  4589,  -555, -1469
817,  4587,  -556, -1470
828,  4589,  -562, -1472
837,  4589,  -572, -1475
848,  4590,  -574, -1485
857,  4592,  -582, -1489
866,  4594,  -594, -1500
877,  4590,  -595, -1503
887,  4594,  -595, -1511
897,  4597,  -602, -1518
907,  4599,  -609, -1515
916,  4599,  -618, -1522
927,  4600,  -622, -1534
936,  4604,  -621, -1546
947,  4609,  -627, -1551
957,  4612,  -633, -1552
968,  4615,  -637, -1549
977,  4613,  -639, -1554
986,  4613,  -641, -1563
997,  4611,  -636, -1568
1007,  4605,  -636, -1574
1017,  4606,  -638, -1590
1027,  4596,  -662, -1605
1036,  4567,  -639, -1584
1047,  4529,  -509, -1473
1057,  4520,  -390, -1367
1067,  4564,  -437, -1420
1077,  4564,  -612, -1567
1086,  4557,  -669, -1641
1097,  4536,  -658, -1668
1106,  4592,  -706, -1783
1117,  4680,  -797, -1908
1127,  4729,  -814, -1930
1136,  4587,  -673, -1891
1147,  4520,  -630, -1769
1156,  4577,  -603, -1623
1167,  4676,  -532, -1566
1177,  4838,  -536, -1589
1186,  4919,  -572, -1681
1197,  4920,  -644, -1787
1206,  4866,  -666, -1837
1217,  4840,  -681, -1855
1226,  4822,  -718, -1877
1237,  4797,  -714, -1852
1247,  4771,  -687, -1803
1256,  4749,  -655, -1758
1267,  4537,  -531, -1732
1276,  4571,  -534, -1665
1287,  4742,  -560, -1631
1296,  4890,  -592, -1651
1306,  4894,  -588, -1673
1317,  4845,  -605, -1690
1326,  4799,  -618, -1698
1337,  4757,  -606, -1694
1346,  4739,  -599, -1684
1356,  4756,  -582, -1675
1367,  4764,  -592, -1696
1376,  4761,  -651, -1745
1387,  4755,  -687, -1787
1396,  4745,  -711, -1814
1407,  4752,  -719, -1833
1416,  4758,  -711, -1845
1426,  4758,  -721, -1855
1437,  4759,  -725, -1866
1446,  4746,  -725, -1879
1457,  4741,  -756, -1908
1466,  4738,  -762, -1901
1476,  4735,  -733, -1883
1487,  4746,  -715, -1868
1496,  4751,  -704, -1851
1507,  4757,  -693, -1848
1516,  4762,  -710, -1878
1527,  4757,  -722, -1893
1536,  4748,  -731, -1896
1546,  4725,  -742, -1910
1557,  4707,  -750, -1915
1566,  4708,  -760, -1927
1577,  4718,  -777, -1941
1586,  4737,  -767, -1946
1596,  4759,  -744, -1942
1606,  4777,  -750, -1959
1616,  4782,  -744, -1951
1627,  4786,  -742, -1949
1636,  4772,  -757, -1957
1646,  4763,  -755, -1954
1657,  4763,  -764, -1970
1666,  4761,  -778, -1978
1675,  4760,  -781, -1974
1686,  4762,  -787, -1985
1696,  4761,  -774, -1979
1707,  4770,  -770, -1989
1716,  4775,  -783, -2015
1727,  4777,  -778, -2015
1736,  4771,  -770, -2009
1745,  4761,  -767, -2004
1756,  4764,  -743, -1985
1766,  4754,  -737, -1980
1777,  4751,  -739, -1976
1786,  4750,  -724, -1970
1795,  4752,  -728, -1977
1806,  4753,  -742, -2003
1816,  4763,  -758, -2028
1826,  4770,  -790, -2066
1836,  4778,  -819, -2101
1847,  4786,  -839, -2130
1856,  4786,  -818, -2126
1865,  4783,  -801, -2113
1876,  4779,  -788, -2098
1886,  4780,  -770, -2074
1897,  4735,  -798, -1994
1906,  4689,  -799, -1941
1915,  4692,  -795, -1944
1926,  4771,  -827, -2024
1935,  4839,  -873, -2076
1946,  4836,  -879, -2106
1956,  4795,  -853, -2123
1965,  4761,  -802, -2134
1976,  4777,  -753, -2159
1985,  4840,  -782, -2244
1996,  4895,  -860, -2345
2006,  4913,  -921, -2386
2017,  4884,  -974, -2399
2026,  4872,  -951, -2408
2035,  4849,  -853, -2445
2046,  4834,  -690, -2475
2055,  4849,  -513, -2529
2066,  4901,  -361, -2599
2076,  4969,  -244, -2653
2085,  4988,  -172, -2676
2096,  5000,  -170, -2656
2105,  4993,  -247, -2620
2116,  4971,  -420, -2591
2126,  4979,  -682, -2543
2135,  4955,  -901, -2512
2146,  4919, -1044, -2480
2155,  4882, -1101, -2451
2166,  4809, -1063, -2424
2176,  4754,  -993, -2363
2185,  4724,  -902, -2327
2196,  4743,  -816, -2325
2205,  4779,  -773, -2319
2216,  4815,  -763, -2328
2225,  4868,  -820, -2348
2236,  4926,  -930, -2390
2246,  4953,  -994, -2429
2255,  4927,  -951, -2479
2266,  4916,  -846, -2514
2275,  4892,  -693, -2520
2286,  4890,  -575, -2516
2295,  4915,  -535, -2533
2305,  4938,  -578, -2556
2316,  4971,  -668, -2594
2325,  5018,  -784, -2668
2336,  5082,  -842, -2753
2345,  5098,  -765, -2863
2355,  5119,  -640, -2980
2366,  5102,  -491, -3139
2375,  5085,  -375, -3256
2386,  5102,  -373, -3282
2395,  5112,  -421, -3271
2406,  5110,  -452, -3203
2415,  5133,  -543, -3097
2425,  5166,  -685, -3009
2436,  5184,  -775, -2925
2445,  5180,  -769, -2797
2456,  5117,  -646, -2644
2465,  5040,  -488, -2478
2475,  4999,  -341, -2320
2486,  4975,  -249, -2196
2495,  4990,  -250, -2140
2506,  5037,  -284, -2150
2515,  5096,  -321, -2172
2524,  5105,  -275, -2177
2535,  5058,  -132, -2186
2545,  5026,     5, -2192
2556,  5004,    93, -2205
2565,  5003,   117, -2213
2576,  5019,    71, -2213
2585,  4996,   -12, -2208
2595,  4925,  -100, -2163
2606,  4859,  -224, -2105
2615,  4832,  -404, -2088
2626,  4836,  -596, -2108
2635,  4859,  -742, -2167
2644,  4877,  -806, -2265
2655,  4907,  -827, -2386
2665,  4940,  -816, -2481
2676,  4926,  -766, -2524
2685,  4852,  -685, -2478
2696,  4786,  -606, -2410
2705,  4802,  -600, -2392
2714,  4865,  -672, -2414
2726,  4891,  -716, -2468
2735,  4878,  -690, -2526
2746,  4873,  -651, -2584
2755,  4867,  -577, -2649
2764,  4877,  -489, -2717
2775,  4918,  -442, -2816
2785,  4966,  -430, -2924
2796,  5039,  -432, -3053
2805,  5131,  -438, -3164
2814,  5174,  -443, -3218
2825,  5168,  -457, -3138
2834,  5132,  -476, -2970
2845,  5116,  -488, -2823
2855,  5155,  -461, -2729
2864,  5218,  -392, -2675
2875,  5271,  -315, -2629
2884,  5293,  -248, -2581
2895,  5296,  -299, -2552
2905,  5269,  -439, -2533
2916,  5214,  -613, -2509
2925,  5142,  -791, -2475
2934,  5041,  -907, -2419
2945,  4946,  -990, -2377
2954,  4879, -1085, -2374
2966,  4859, -1157, -2393
2975,  4846, -1157, -2420
2984,  4844, -1100, -2465
2995,  4878, -1019, -2534
3004,  4917,  -932, -2602
3015,  4957,  -830, -2660
3025,  4997,  -686, -2691
3034,  5030,  -559, -2713
3045,  5057,  -475, -2701
3054,  5086,  -434, -2673
3065,  5108,  -423, -2661
3075,  5088,  -431, -2648
3084,  5049,  -433, -2606
3095,  5013,  -422, -2583
3104,  4979,  -391, -2567
3115,  4951,  -359, -2578
3124,  4941,  -342, -2634
3134,  4966,  -358, -2723
3145,  5004,  -456, -2819
3154,  5040,  -585, -2878
3165,  5044,  -723, -2911
3174,  5042,  -883, -2908
3185,  5019, -1055, -2860
3195,  4992, -1177, -2845
3204,  4974, -1207, -2859
3215,  4956, -1141, -2895
3224,  4947, -1039, -2952
3234,  4952,  -907, -2993
3245,  4978,  -803, -3025
3254,  5035,  -761, -3048
3265,  5084,  -771, -3052
3274,  5108,  -815, -3006
3285,  5106,  -837, -2948
3294,  5075,  -789, -2889
3304,  5032,  -684, -2850
3315,  5033,  -608, -2817
3324,  5041,  -549, -2821
3335,  5042,  -539, -2828
3344,  5032,  -597, -2815
3354,  4988,  -672, -2775
3365,  4934,  -751, -2739
3374,  4882,  -847, -2722
3385,  4833,  -924, -2722
3394,  4790,  -971, -2726
3403,  4769,  -998, -2726
3414,  4764, -1041, -2741
3424,  4785, -1061, -2784
3435,  4796, -1039, -2873
3444,  4792, -1001, -2960
3455,  4778,  -977, -3033
3464,  4760,  -982, -3101
3474,  4738, -1049, -3192
3485,  4766, -1199, -3305
3494,  4805, -1374, -3381
3505,  4747, -1484, -3513
3514,  4683, -1550, -3750
3523,  4700, -1706, -4034
3534,  4806, -2044, -4321
3544,  4954, -2504, -4572
3555,  4997, -3040, -4826
3564,  4846, -3356, -5199
3575,  4671, -3301, -5777
3584,  4609, -2949, -6708
3594,  4685, -2377, -7950
3604,  5021, -1796, -9172
3614,  5598, -1317,-10313
3625,  6163,  -852,-11070
3634,  6764,  -549,-11491
3643,  7189,  -435,-11712
3654,  7189,   -52,-11534
3664,  7015,   316,-11017
3675,  6609,   631,-10146
3684,  6174,   977, -8972
3693,  5829,  1200, -7465
3704,  5382,  1314, -5521
3714,  4755,  1459, -3124
3724,  3950,  1489,  -419
3734,  3407,  1144,  2063
3743,  3183,   722,  4020
3754,  3071,   513,  5380
3763,  3145,   450,  6090
3774,  3391,   284,  6083
3784,  3736,   -13,  5673
3795,  4103,  -352,  5062
3804,  4206,  -477,  4458
3813,  4150,  -402,  3822
3824,  4117,  -347,  3065
3833,  4137,  -451,  2380
3844,  4180,  -727,  1765
3854,  4237, -1099,  1266
3865,  4210, -1420,   907
3874,  4126, -1696,   665
3883,  4020, -1981,   507
3894,  3883, -2125,   500
3903,  3727, -2117,   605
3914,  3552, -1966,   825
3924,  3360, -1786,  1111
3933,  3170, -1634,  1372
3944,  3104, -1551,  1513
3953,  3105, -1587,  1569
3964,  3174, -1733,  1550
3973,  3275, -1974,  1446
3984,  3411, -2209,  1307
3994,  3521, -2306,  1168
4003,  3532, -2179,  1052
4014,  3524, -1900,   929
4023,  3568, -1558,   753
4034,  3679, -1279,   554
4043,  3823, -1069,   363
4054,  3995,  -940,   185
4064,  4129,  -836,    47
4073,  4275,  -801,   -46
4084,  4416,  -808,  -150
4093,  4511,  -768,  -189
4104,  4567,  -741,  -191
4113,  4633,  -712,  -160
4123,  4693,  -648,   -87
4134,  4717,  -529,   -20
4143,  4695,  -376,     2
4154,  4684,  -348,   -34
4163,  4742,  -500,  -201
4174,  4830,  -773,  -527
4184,  4932, -1020,  -871
4193,  5005, -1093, -1139
4204,  5019, -1035, -1335
4213,  5016,  -960, -1479
4224,  5052,  -946, -1577
4233,  5077,  -997, -1589
4243,  5049, -1065, -1500
4254,  5022, -1154, -1324
4263,  4951, -1262, -1101
4274,  4886, -1400,  -854
4283,  4862, -1548,  -661
4294,  4889, -1654,  -579
4303,  4954, -1686,  -640
4313,  4997, -1621,  -803
4324,  5057, -1498, -1023
4333,  5161, -1396, -1286
4344,  5260, -1284, -1543
4353,  5317, -1171, -1731
4364,  5359, -1112, -1816
4373,  5400, -1156, -1816
4383,  5419, -1234, -1756
4394,  5358, -1248, -1646
4403,  5245, -1243, -1464
4414,  5131, -1296, -1244
4423,  5004, -1403, -1023
4434,  4933, -1543,  -822
4443,  4904, -1648,  -767
4453,  4948, -1732,  -890
4464,  5047, -1780, -1129
4473,  5131, -1742, -1391
4482,  5179, -1618, -1613
4493,  5208, -1436, -1772
4503,  5246, -1312, -1848
4514,  5286, -1251, -1851
4523,  5309, -1243, -1798
4533,  5291, -1253, -1707
4544,  5263, -1280, -1625
4553,  5230, -1345, -1548
4562,  5219, -1456, -1493
4573,  5242, -1586, -1460
4583,  5257, -1675, -1471
4594,  5258, -1714, -1472
4603,  5230, -1735, -1446
4612,  5177, -1768, -1421
4623,  5131, -1810, -1431
4632,  5072, -1821, -1498
4643,  4997, -1795, -1599
4653,  4914, -1777, -1718
4664,  4791, -1856, -1846
4673,  4523, -1981, -1934
4682,  3998, -2116, -2028
4693,  3114, -2219, -2206
4703,  1769, -2251, -2492
4713,   121, -2211, -2864
4723, -1486, -2103, -3272
4734, -2911, -1834, -3713
4743, -3914, -1392, -4192
4752, -4323,  -980, -4717
4763, -4215,  -670, -5284
4773, -3671,  -402, -5732
4782, -2811,  -137, -5890
4793, -1646,   125, -5667
4802,  -410,   293, -5159
4814,   709,   171, -4575
4823,  1839,  -308, -3820
4832,  2936, -1091, -2870
4843,  3977, -1965, -1907
4852,  5033, -2575, -1035
4863,  5899, -2741,  -305
4873,  6459, -2350,   378
4882,  7061, -1746,  1144
4893,  7721, -1256,  1896
4902,  8415, -1094,  2372
4913,  9102, -1236,  2498
4922,  9639, -1789,  2068
4933, 10122, -2489,  1358
4943, 10399, -2920,   813
4952, 10336, -2962,   590
4963, 10144, -2865,   358
4972, 10021, -2920,    59
4983,  9851, -3053,  -249
4993,  9685, -3260,  -567
5003,  9442, -3499,  -872
5013,  9148, -3748, -1221
5022,  8819, -4049, -1519
5033,  8352, -4286, -1688
5042,  7830, -4520, -1876
5053,  7359, -4576, -2088
5063,  6892, -4266, -2231
5072,  6388, -3750, -2358
5083,  5966, -3214, -2434
5092,  5627, -2817, -2436
5103,  5353, -2622, -2439
5112,  5138, -2524, -2411
5123,  4988, -2562, -2469
5133,  4891, -2702, -2622
5142,  4806, -2785, -2789
5153,  4700, -2720, -2904
5162,  4596, -2520, -2955
5172,  4528, -2272, -2883
5183,  4509, -2043, -2664
5192,  4549, -1870, -2379
5203,  4658, -1825, -2113
5212,  4762, -1893, -1896
5222,  4865, -2051, -1796
5233,  4899, -2181, -1731
5242,  4875, -2291, -1709
5253,  4879, -2413, -1725
5262,  4844, -2442, -1759
5273,  4845, -2371, -1781
5282,  4852, -2235, -1775
5292,  4792, -2075, -1697
5303,  4683, -1970, -1525
5312,  4616, -2029, -1415
5323,  4685, -2213, -1532
5332,  4845, -2369, -1849
5341,  4990, -2412, -2269
5352,  5068, -2295, -2656
5362,  5100, -2083, -2947
5373,  5094, -1881, -3130
5382,  5104, -1783, -3130
5393,  5083, -1757, -2979
5402,  5038, -1803, -2733
5412,  4957, -1881, -2475
5422,  4859, -2006, -2259
5432,  4753, -2205, -2054
5443,  4672, -2373, -1905
5452,  4620, -2446, -1859
5463,  4612, -2400, -1877
5472,  4573, -2199, -1909
5482,  4547, -1925, -1951
5493,  4592, -1725, -2007
5502,  4644, -1611, -2032
5513,  4695, -1600, -2008
5522,  4732, -1678, -1979
5532,  4759, -1826, -1981
5542,  4787, -2080, -2046
5552,  4807, -2349, -2137
5563,  4816, -2539, -2222
5572,  4786, -2594, -2271
5581,  4761, -2515, -2309
5592,  4773, -2388, -2371
5602,  4804, -2261, -2463
5613,  4864, -2142, -2629
5622,  4962, -2027, -2804
5633,  5062, -1933, -2973
5642,  5151, -1889, -3060
5651,  5131, -1869, -3018
5662,  5060, -1904, -2861
5672,  4986, -2011, -2679
5683,  4898, -2113, -2521
5692,  4852, -2149, -2385
5701,  4814, -2124, -2263
5712,  4758, -2042, -2158
5721,  4708, -1959, -2057
5732,  4678, -1882, -1937
5742,  4651, -1826, -1803
5751,  4606, -1849, -1642
5762,  4531, -1950, -1395
5771,  4424, -2117, -1120
5782,  4305, -2309,  -853
5791,  4195, -2503,  -605
5802,  4067, -2641,  -327
5812,  3912, -2694,    39
5823,  3760, -2706,   520
5832,  3571, -2706,  1089
5841,  3422, -2762,  1673
5852,  3299, -3015,  2318
5861,  3121, -3517,  3063
5872,  2873, -4265,  3838
5882,  2703, -5150,  4555
5892,  2670, -5894,  5122
5902,  2751, -6310,  5496
5911,  2919, -6298,  5660
5922,  3223, -5860,  5447
5931,  3603, -5113,  4913
5942,  3933, -4248,  4255
5952,  4337, -3373,  3285
5961,  4538, -2293,  1886
5972,  4602, -1052,   -56
5981,  4762,   -65, -2525
5992,  5036,   342, -5051
6001,  5060,   258, -6950
6012,  4689,  -276, -8064
6022,  4230, -1124, -8782
6031,  3665, -1750, -9216
6042,  2862, -1821, -9787
6051,  2187, -1748,-11150
6062,  1933, -1745,-12817
6071,  2065, -1893,-14274
6081,  2621, -2354,-15311
6092,  3281, -2887,-15606
6101,  3601, -3358,-15146
6112,  3541, -3615,-14072
6121,  3359, -3830,-12675
6132,  3380, -3663,-11381
6142,  3437, -2929,-10230
6151,  3545, -1940, -9205
6162,  3729, -1082, -8391
6171,  4014,  -491, -7846
6182,  4346,  -192, -7546
6191,  4646,  -164, -7378
6201,  4878,  -368, -7175
6212,  5027,  -655, -6815
6221,  5103,  -844, -6389
6232,  5125,  -837, -6041
6241,  5044,  -676, -5752
6251,  4908,  -470, -5511
6262,  4820,  -418, -5380
6271,  4823,  -551, -5412
6282,  4878,  -761, -5496
6291,  4912, -1014, -5560
6302,  4881, -1296, -5503
6311,  4798, -1564, -5344
6321,  4710, -1809, -5171
6332,  4631, -1998, -5005
6341,  4550, -2105, -4854
6350,  4448, -2171, -4715
6361,  4362, -2192, -4654
6371,  4341, -2175, -4754
6382,  4399, -2147, -4999
6391,  4514, -2126, -5290
6400,  4554, -2078, -5428
6411,  4539, -2000, -5398
6421,  4539, -1931, -5307
6432,  4548, -1867, -5238
6441,  4526, -1797, -5156
6452,  4487, -1730, -5027
6461,  4400, -1647, -4853
6470,  4330, -1589, -4684
6481,  4278, -1592, -4538
6491,  4262, -1653, -4431
6502,  4245, -1762, -4350
6511,  4230, -1890, -4300
6520,  4235, -1958, -4286
6531,  4229, -1952, -4284
6541,  4190, -1844, -4297
6552,  4155, -1681, -4334
6561,  4158, -1535, -4415
6572,  4226, -1430, -4569
6581,  4312, -1349, -4771
6590,  4361, -1294, -4956
6601,  4370, -1307, -5047
6611,  4373, -1453, -5059
6622,  4374, -1638, -5025
6631,  4337, -1775, -4964
6640,  4285, -1885, -4862
6651,  4241, -1959, -4758
6661,  4200, -1994, -4672
6671,  4160, -1984, -4596
6681,  4199, -1995, -4545
6690,  4308, -2040, -4567
6701,  4462, -2076, -4678
6710,  4657, -2104, -4852
6721,  4865, -2119, -5035
6731,  5067, -2131, -5227
6742,  5252, -2107, -5391
6751,  5412, -2042, -5469
6760,  5535, -1954, -5458
6771,  5651, -1864, -5311
6780,  5818, -1812, -5136
6791,  6064, -1788, -5001
6801,  6383, -1770, -4900
6810,  6747, -1773, -4868
6821,  7156, -1763, -4882
6830,  7643, -1751, -4952
6841,  8167, -1743, -5079
6850,  8682, -1740, -5211
6861,  9194, -1768, -5333
6871,  9699, -1745, -5445
6880, 10094, -1567, -5524
6891, 10365, -1252, -5556
6900, 10547,  -868, -5539
6911, 10674,  -558, -5517
6921, 10721,  -399, -5565
6930, 10589,  -414, -5570
6941, 10208,  -585, -5499
6950,  9740,  -822, -5390
6961,  9368, -1111, -5364
6970,  8925, -1272, -5391
6981,  8359, -1166, -5388
6991,  7654,  -768, -5380
7000,  6816,  -188, -5252
7011,  5931,   375, -4987
7020,  4942,   816, -4446
7031,  3823,  1131, -3720
7040,  2618,  1390, -3096
7050,  1197,  1437, -2664
7061,  -343,  1093, -2480
7070, -1809,   528, -2431
7081, -2838,  -222, -2482
7090, -3415, -1237, -2482
7101, -3694, -2219, -2368
7110, -3781, -2814, -2230
7120, -3604, -2987, -2218
7131, -3161, -2867, -2335
7140, -2500, -2535, -2462
7151, -1747, -2054, -2581
7160,  -959, -1532, -2640
7170,  -250, -1052, -2610
7181,   353,  -758, -2456
7190,   845,  -802, -2142
7201,  1224, -1104, -1771
7211,  1537, -1552, -1423
7220,  1846, -2047, -1216
7231,  2201, -2431, -1255
7240,  2568, -2633, -1542
7250,  2916, -2617, -1982
7261,  3177, -2387, -2448
7270,  3397, -2103, -2894
7280,  3574, -1889, -3202
7291,  3723, -1852, -3396
7300,  3747, -1918, -3464
7311,  3712, -2062, -3387
7320,  3699, -2272, -3324
7330,  3758, -2481, -3327
7341,  3828, -2571, -3374
7350,  3907, -2543, -3461
7361,  3997, -2375, -3591
7370,  4073, -2095, -3696
7379,  4145, -1788, -3789
7390,  4171, -1477, -3863
7400,  4122, -1226, -3883
7411,  4081, -1146, -3832
7420,  4044, -1218, -3679
7431,  4040, -1392, -3507
7440,  4122, -1636, -3405
7449,  4250, -1827, -3360
7460,  4341, -1875, -3322
7470,  4383, -1781, -3246
7481,  4391, -1588, -3147
7490,  4392, -1396, -3022
7499,  4440, -1286, -2960
7510,  4519, -1257, -2947
7520,  4585, -1263, -2938
7530,  4646, -1288, -2956
7540,  4710, -1327, -2998
7551,  4762, -1370, -3051
7560,  4770, -1367, -3082
7569,  4741, -1295, -3109
7580,  4744, -1195, -3189
7590,  4755, -1108, -3284
7601,  4748, -1052, -3312
7610,  4725, -1026, -3290
7619,  4707, -1035, -3255
7630,  4707, -1089, -3197
7639,  4713, -1149, -3140
7650,  4727, -1190, -3135
7660,  4748, -1235, -3162
7671,  4739, -1250, -3184
7680,  4709, -1230, -3140
7689,  4672, -1220, -3064
7700,  4649, -1238, -2991
7710,  4655, -1293, -2938
7721,  4660, -1353, -2918
7730,  4651, -1388, -2934
7739,  4632, -1372, -2986
7750,  4646, -1340, -3102
7759,  4691, -1294, -3232
7770,  4734, -1250, -3343
7780,  4751, -1205, -3404
7789,  4739, -1192, -3399
7800,  4741, -1245, -3339
7809,  4750, -1314, -3303
7820,  4767, -1367, -3313
7830,  4807, -1401, -3371
7839,  4892, -1431, -3516
7850,  5000, -1408, -3720
7859,  5120, -1336, -3962
7870,  5199, -1258, -4176
7879,  5263, -1229, -4345
7890,  5354, -1286, -4489
7900,  5404, -1381, -4631
7909,  5438, -1475, -4789
7920,  5516, -1573, -5049
7930,  5633, -1670, -5393
7939,  5727, -1754, -5731
7950,  5742, -1742, -6038
7959,  5727, -1666, -6288
7970,  5782, -1656, -6467
7979,  5802, -1648, -6532
7989,  5646, -1614, -6472
8000,  5442, -1618, -6424
8009,  5286, -1684, -6531
8020,  5121, -1741, -6648
8029,  4932, -1781, -6692
8039,  4757, -1766, -6677
8050,  4617, -1621, -6615
8059,  4747, -1343, -6816
8070,  5028,  -915, -7237
8079,  5325,  -413, -7446
8090,  5512,    59, -7224
8099,  5309,   477, -6405
8109,  4613,   795, -4975
8120,  3640,   805, -3214
8129,  2798,   303, -1546
8140,  2384,  -484,  -307
8149,  2578, -1368,   123
8159,  3203, -2047,  -172
8169,  3995, -2297,  -929
8179,  4769, -2094, -1928
8190,  5351, -1556, -2752
8199,  5653,  -843, -3037
8210,  5503,  -118, -2656
8219,  5183,   226, -1797
8229,  5070,     4,  -800
8240,  4922,  -448,     6
8249,  4894,  -967,   558
8260,  5100, -1493,   802
8269,  5426, -1892,   824
8279,  5717, -2090,   805
8290,  5793, -1942,   957
8299,  5613, -1523,  1297
8310,  5337, -1035,  1671
8319,  5033,  -628,  1961
8328,  4704,  -308,  2189
8339,  4332,  -189,  2363
8349,  3918,  -316,  2561
8360,  3529,  -739,  2753
8369,  3117, -1367,  2865
8380,  2751, -2092,  2960
8389,  2446, -2799,  2985
8398,  2182, -3282,  2978
8409,  2060, -3503,  2916
8419,  2149, -3502,  2681
8430,  2372, -3285,  2285
8439,  2681, -2895,  1846
8448,  2978, -2400,  1457
8459,  3234, -1883,  1136
8469,  3507, -1503,   872
8480,  3779, -1316,   659
8489,  4011, -1289,   498
8500,  4144, -1326,   415
8509,  4157, -1339,   441
8518,  4192, -1451,   498
8529,  4292, -1640,   459
8539,  4396, -1837,   316
8550,  4515, -1983,   180
8559,  4591, -2023,    67
8568,  4686, -2022,   -11
8579,  4794, -1982,   -81
8588,  4890, -1878,  -149
8599,  5005, -1794,  -229
8609,  5123, -1753,  -365
8620,  5186, -1685,  -527
8629,  5227, -1660,  -673
8638,  5210, -1646,  -750
8649,  5168, -1652,  -767
8659,  5133, -1691,  -785
8669,  5117, -1744,  -825
8679,  5148, -1778,  -929
8688,  5210, -1766, -1090
8699,  5264, -1699, -1238
8708,  5267, -1580, -1311
8719,  5212, -1408, -1303
8729,  5152, -1249, -1218
8738,  5069, -1131, -1093
8749,  4977, -1081,  -956
8758,  4906, -1115,  -834
8769,  4855, -1251,  -761
8778,  4791, -1438,  -732
8789,  4690, -1604,  -736
8799,  4549, -1700,  -725
8808,  4355, -1724,  -697
8819,  4117, -1664,  -673
8828,  3844, -1571,  -683
8839,  3462, -1442,  -752
8848,  2916, -1320,  -903
8859,  2214, -1267, -1143
8869,  1343, -1254, -1412
8878,   592, -1322, -1690
8889,   -33, -1368, -2043
8898,  -412, -1396, -2557
8909,  -669, -1454, -3247
8919,  -989, -1346, -4022
8928, -1329, -1033, -4686
8939, -1667,  -590, -5114
8948, -1834,  -286, -5328
8959, -1727,  -170, -5386
8968, -1275,  -372, -5441
8978,  -400,  -788, -5375
8989,   400, -1175, -5079
8998,  1157, -1532, -4662
9009,  1756, -1551, -4030
9018,  2426, -1338, -3314
9028,  3184,  -974, -2603
9039,  3760,  -259, -1675
9048,  4362,   482,  -656
9059,  5131,   902,   298
9068,  5972,   850,  1094
9079,  6673,   527,  1661
9088,  7039,   -23,  2034
9098,  7240,  -649,  2506
9109,  7316, -1108,  3044
9118,  7281, -1257,  3468
9129,  7451, -1320,  3400
9138,  8211, -1633,  2759
9148,  9333, -2138,  1947
9159, 10070, -2718,  1229
9168, 10258, -3499,   568
9179, 10284, -4490,    91
9188, 10093, -5454,   -92
9198,  9672, -6224,   -41
9209,  9206, -6708,   235
9218,  8878, -6848,   588
9229,  8800, -6791,   759
9238,  8880, -6713,   488
9247,  8905, -6581,  -166
9259,  8769, -6448,  -900
9268,  8383, -6301, -1581
9279,  7921, -6271, -2305
9288,  7435, -6312, -3104
9297,  6870, -6277, -3858
9308,  6261, -6163, -4433
9318,  5697, -5821, -4818
9329,  5347, -5287, -5105
9338,  5196, -4670, -5247
9347,  5040, -3927, -5233
9358,  4919, -3197, -5036
9368,  4900, -2636, -4705
9379,  4948, -2298, -4351
9388,  4987, -2104, -3984
9399,  4978, -2026, -3581
9408,  4903, -2021, -3157
9417,  4809, -2049, -2754
9428,  4704, -2006, -2411
9438,  4639, -1914, -2171
9449,  4680, -1881, -2053
9458,  4746, -1904, -2020
9467,  4801, -2001, -2040
9478,  4850, -2183, -2084
9488,  4850, -2410, -2101
9497,  4832, -2681, -2098
9508,  4829, -2902, -2104
9518,  4799, -2962, -2134
9529,  4795, -2855, -2204
9538,  4817, -2671, -2320
9547,  4853, -2489, -2440
9558,  4886, -2337, -2533
9567,  4919, -2256, -2574
9578,  4922, -2245, -2551
9588,  4857, -2275, -2480
9599,  4775, -2425, -2430
9608,  4748, -2610, -2414
9617,  4706, -2735, -2406
9628,  4669, -2766, -2364
9638,  4621, -2713, -2282
9649,  4590, -2629, -2189
9658,  4574, -2519, -2104
9667,  4519, -2369, -2006
9678,  4477, -2282, -1940
9687,  4501, -2374, -1946
9698,  4524, -2583, -1999
9708,  4527, -2763, -2061
9717,  4501, -2845, -2102
9728,  4480, -2834, -2122
9737,  4452, -2767, -2143
9748,  4467, -2711, -2126
9758,  4484, -2685, -2039
9767,  4520, -2703, -1899
9778,  4568, -2776, -1757
9787,  4602, -2924, -1551
9798,  4567, -3095, -1279
9807,  4465, -3282, -1017
9818,  4391, -3464,  -875
9828,  4234, -3582,  -789
9837,  3939, -3700,  -624
9848,  3458, -3792,  -195
9857,  2894, -3787,   464
9868,  2499, -3875,   983
9878,  2262, -4022,  1246
9887,  2036, -4167,  1387
9898,  1945, -4263,  1386
9907,  1984, -4348,  1168
9918,  2199, -4424,   788
9927,  2424, -4482,   476
9937,  2573, -4438,   549
9948,  2821, -4395,   785
9957,  3244, -4411,   917
9968,  3774, -4401,   885
9977,  4345, -4372,   789
9988,  4997, -4359,   706
9998,  5545, -4283,   634
10007,  5847, -4197,   589
10018,  6085, -4229,   403
10027,  6322, -4147,  -144
10038,  6527, -3772, -1175
10047,  6300, -3147, -2019
10057,  6757, -2724, -2995
10068,  7008, -2029, -4066
10077,  7108, -1243, -5157
10088,  7016,  -789, -6000
10097,  6882,  -979, -6622
10108,  6764, -1448, -7215
10117,  6667, -1844, -7887
10127,  6400, -1785, -8622
10138,  5893, -1198, -9509
10147,  5606,  -595,-10350
10158,  5382,  -201,-10705
10167,  4696,   252,-10424
10177,  3779,   761, -9629
10188,  2923,   732, -8696
10197,  2432,   216, -8022
10208,  2366,  -418, -7899
10217,  2751, -1013, -8204
10226,  3320, -1243, -8692
10237,  3743, -1157, -9362
10247,  4014,  -887,-10260
10258,  3940,  -243,-10935
10267,  3665,   474,-11158
10276,  3473,   668,-11141
10287,  3643,   156,-11170
10297,  4067,  -582,-11374
10308,  4531, -1020,-11704
10317,  4986, -1079,-11859
10326,  5275,  -915,-11652
10337,  5420,  -730,-11240
10347,  5494,  -759,-10725
10358,  5578, -1021,-10122
10367,  5690, -1360, -9488
10378,  5620, -1562, -8752
10387,  5436, -1594, -7820
10396,  5189, -1464, -6840
10407,  5003, -1215, -6016
10417,  4898,  -943, -5480
10428,  4842,  -726, -5149
10437,  4857,  -625, -4996
10446,  4952,  -661, -5006
10457,  5048,  -711, -5105
10467,  5116,  -716, -5156
10477,  5155,  -696, -5068
10487,  5140,  -758, -4881
10496,  5119,  -889, -4684
10507,  5091, -1015, -4585
10516,  5069, -1131, -4593
10527,  5166, -1260, -4675
10537,  5241, -1231, -4737
10548,  5304, -1032, -4770
10557,  5325,  -600, -4710
10566,  5315,    14, -4599
10577,  5356,   598, -4534
10586,  5380,   929, -4587
10597,  5358,   944, -4762
10607,  5420,   575, -4944
10616,  5527,   -31, -5065
10627,  5609,  -646, -5131
10636,  5651, -1097, -5189
10647,  5699, -1356, -5299
10657,  5771, -1474, -5467
10668,  5833, -1468, -5688
10677,  5937, -1429, -5892
10686,  6079, -1399, -6004
10697,  6191, -1376, -5982
10706,  6275, -1414, -5842
10717,  6335, -1477, -5656
10727,  6396, -1499, -5476
10736,  6437, -1469, -5322
10747,  6538, -1429, -5263
10756,  6660, -1324, -5254
10767,  6786, -1177, -5237
10776,  6948, -1054, -5178
10787,  7096,  -980, -5054
10797,  7217,  -940, -4888
10806,  7350,  -920, -4648
10816,  7490,  -878, -4351
10827,  7701,  -810, -4057
10836,  8086,  -701, -3935
10847,  8543,  -475, -4021
10856,  9143,  -175, -4283
10867,  9843,   172, -4611
10876, 10482,   574, -4894
10886, 10980,   869, -5136
10897, 11427,   894, -5354
10906, 11831,   680, -5643
10917, 12077,   291, -5960
10926, 12215,  -277, -6337
10936, 12156,  -969, -6645
10947, 11879, -1721, -6818
10956, 11554, -2391, -6947
10967, 11240, -2773, -7074
10976, 11053, -2773, -7263
10987, 10841, -2337, -7456
10996, 10490, -1633, -7600
11006,  9982,  -981, -7562
11017,  9339,  -636, -7362
11026,  8510,  -617, -6991
11036,  7576,  -808, -6529
11047,  6392,  -969, -5912
11056,  5138, -1055, -5129
11067,  3919, -1095, -4370
11076,  2744, -1192, -3732
11086,  1475, -2016, -1631
11097,   638, -1919, -1152
11106,    62, -1245, -1065
11117,  -282,  -662,  -993
11126,  -589,  -694,  -451
11137,  -878, -1107,   355
11146, -1062, -1616,   691
11155, -1238, -2000,   429
11166, -1346, -2159,   -10
11176, -1140, -2142,  -399
11187,  -716, -1976,  -649
11196,  -320, -1871,  -800
11207,   -33, -1877,  -855
11216,   222, -2060,  -872
11225,   503, -2265,  -963
11236,   756, -2362, -1170
11246,  1110, -2315, -1477
11257,  1496, -2051, -1746
11266,  1766, -1571, -1761
11275,  1852, -1072, -1478
11286,  1893,  -776, -1051
11296,  2009,  -790,  -717
11307,  2214, -1042,  -691
11316,  2543, -1432,  -976
11325,  2929, -1816, -1467
11336,  3329, -2109, -2039
11345,  3754, -2285, -2608
11356,  4110, -2294, -3099
11366,  4339, -2224, -3383
11377,  4448, -2214, -3388
11386,  4470, -2326, -3143
11397,  4429, -2515, -2783
11406,  4319, -2661, -2398
11415,  4283, -2714, -2094
11426,  4319, -2695, -1928
11436,  4381, -2616, -1898
11446,  4482, -2557, -2027
11456,  4695, -2557, -2310
11467,  4913, -2516, -2596
11476,  5055, -2425, -2694
11485,  5116, -2309, -2557
11496,  5098, -2213, -2260
11505,  5071, -2224, -1965
11516,  5073, -2295, -1785
11526,  5080, -2321, -1709
11535,  5126, -2280, -1716
11546,  5208, -2231, -1767
11555,  5253, -2225, -1766
11566,  5248, -2220, -1723
11575,  5243, -2222, -1714
11586,  5258, -2225, -1711
11596,  5249, -2191, -1653
11607,  5191, -2196, -1547
11616,  5129, -2279, -1431
11625,  5118, -2456, -1377
11636,  5124, -2671, -1363
11645,  5121, -2868, -1369
11656,  5097, -2989, -1343
11666,  5070, -3025, -1284
11676,  5061, -2985, -1230
11686,  5111, -2866, -1288
11695,  5202, -2735, -1376
11706,  5282, -2660, -1441
11715,  5356, -2626, -1475
11726,  5371, -2611, -1465
11735,  5345, -2671, -1420
11745,  5368, -2792, -1399
11756,  5389, -2869, -1423
11765,  5423, -2912, -1526
11776,  5473, -2993, -1634
11785,  5540, -3065, -1707
11796,  5568, -3083, -1741
11805,  5553, -3056, -1749
11816,  5527, -2982, -1742
11826,  5517, -2876, -1701
11835,  5455, -2722, -1624
11846,  5388, -2564, -1515
11855,  5353, -2451, -1418
11866,  5337, -2360, -1353
11875,  5307, -2224, -1325
11885,  5235, -2049, -1286
11896,  5173, -1920, -1225
11905,  5138, -1930, -1166
11916,  5151, -2076, -1152
11925,  5184, -2221, -1197
11936,  5233, -2301, -1292
11945,  5289, -2340, -1368
11955,  5349, -2362, -1397
11966,  5382, -2359, -1368
11975,  5350, -2359, -1303
11986,  5298, -2431, -1210
11995,  5233, -2526, -1092
12006,  5161, -2578,  -980
12015,  5154, -2569,  -906
12025,  5154, -2510,  -888
12036,  5188, -2468,  -942
12045,  5222, -2494, -1016
12056,  5204, -2599, -1049
12065,  5179, -2783, -1051
12075,  5104, -2983, -1015
12086,  5056, -3228,  -987
12095,  5026, -3428,  -963
12105,  4968, -3455,  -928
12116,  4937, -3338, -1005
12125,  4958, -3114, -1287
12135,  4991, -2793, -1679
12146,  5027, -2482, -2076
12155,  5071, -2283, -2476
12164,  5061, -2125, -2810
12176,  4930, -1965, -3023
12185,  4642, -1860, -3117
12195,  4264, -1900, -3152
12206,  3835, -2140, -3322
12215,  3515, -2629, -3882
12226,  3155, -3182, -4656
12235,  2695, -3595, -5504
12245,  1743, -3634, -6216
12256,   420, -3349, -6678
12265,  -826, -2923, -6664
12276, -2183, -2248, -6129
12285, -3325, -1322, -5310
12295, -3837,  -466, -5152
12304, -3355,    72, -6449
12315, -2290,   511, -8167
12325, -1610,  1104, -9080
12336, -1609,  1501, -8572
12345, -1790,  1806, -7292
12354, -1587,  2203, -5887
12365,  -431,  2560, -4702
12375,  1555,  2493, -3857
12386,  3366,  2211, -3155
12395,  4516,  1662, -2622
12404,  5441,   777, -2285
12415,  6157,    51, -1475
12424,  6595,  -149,  -165
12435,  6963,  -612,   824
12445,  7711, -1144,  1518
12454,  8814, -1072,  2250
12465,  9711,  -993,  2861
12475, 10280, -1164,  3223
12484, 10724, -1999,  3209
12495, 10981, -3340,  2793
12505, 11015, -4981,  2726
12514, 10879, -6743,  2341
12525, 10730, -7652,  1844
12535, 10468, -7736,  1331
12544, 10280, -7865,   796
12554, 10173, -8038,   143
12565,  9845, -8247,  -871
12575,  9667, -8761, -2106
12584,  9503, -9203, -3047
12595,  9061, -9243, -3625
12604,  8556, -9182, -4230
12614,  8002, -9159, -4791
12625,  7365, -9025, -5166
12634,  6738, -8821, -5282
12645,  6211, -8602, -5181
12655,  5852, -8315, -5026
12664,  5629, -7863, -4896
12675,  5429, -7292, -4808
12684,  5165, -6667, -4671
12695,  4855, -6055, -4492
12704,  4555, -5524, -4261
12715,  4299, -5197, -4008
12725,  4107, -5080, -3771
12734,  3987, -5077, -3519
12745,  3940, -5012, -3367
12754,  4009, -4863, -3401
12765,  4138, -4611, -3551
12774,  4228, -4264, -3697
12784,  4300, -3993, -3749
12795,  4261, -3795, -3623
12804,  4164, -3668, -3434
12815,  4117, -3660, -3296
12824,  4155, -3679, -3186
12835,  4234, -3726, -3089
12845,  4291, -3798, -2967
12854,  4383, -3921, -2869
12865,  4517, -4059, -2874
12874,  4608, -4034, -2954
12885,  4639, -3892, -3062
12895,  4588, -3714, -3094
12904,  4498, -3518, -3070
12915,  4419, -3389, -3058
12924,  4351, -3348, -3028
12935,  4316, -3395, -2941
12944,  4287, -3435, -2890
12954,  4252, -3444, -2951
12965,  4268, -3460, -3095
12974,  4288, -3480, -3231
12985,  4316, -3554, -3299
12994,  4361, -3577, -3318
13004,  4420, -3460, -3325
13014,  4448, -3238, -3352
13024,  4404, -3028, -3273
13035,  4294, -2934, -3100
13044,  4206, -3023, -2954
13055,  4164, -3237, -2858
13064,  4125, -3502, -2796
13074,  4121, -3764, -2776
13085,  4136, -3966, -2782
13094,  4154, -4094, -2782
13105,  4127, -4127, -2763
13114,  4097, -4086, -2762
13124,  4108, -4056, -2729
13135,  4124, -4022, -2679
13144,  4166, -3979, -2686
13155,  4226, -3914, -2736
13164,  4277, -3848, -2753
13173,  4324, -3793, -2742
13184,  4334, -3792, -2703
13194,  4322, -3850, -2598
13205,  4296, -3924, -2452
13214,  4288, -3968, -2332
13225,  4303, -3950, -2277
13234,  4333, -3927, -2335
13243,  4385, -3870, -2481
13254,  4358, -3779, -2578
13264,  4291, -3694, -2612
13275,  4234, -3650, -2612
13284,  4217, -3700, -2609
13293,  4253, -3747, -2616
13304,  4298, -3740, -2638
13314,  4336, -3702, -2663
13325,  4409, -3715, -2747
13334,  4494, -3789, -2877
13343,  4531, -3818, -3018
13354,  4518, -3798, -3161
13364,  4480, -3768, -3238
13375,  4386, -3760, -3212
13384,  4269, -3864, -3081
13393,  4181, -4074, -2867
13404,  4135, -4267, -2678
13413,  4115, -4347, -2535
13424,  4095, -4304, -2468
13434,  4137, -4234, -2503
13445,  4229, -4115, -2607
13454,  4302, -3901, -2775
13463,  4345, -3619, -2950
13474,  4348, -3395, -3048
13483,  4372, -3295, -3064
13494,  4404, -3309, -3014
13504,  4391, -3409, -2892
13513,  4379, -3577, -2753
13524,  4369, -3767, -2637
13533,  4390, -3950, -2585
13544,  4425, -4084, -2558
13553,  4445, -4113, -2538
13564,  4456, -4071, -2566
13574,  4486, -4027, -2612
13583,  4509, -3958, -2642
13594,  4523, -3910, -2702
13603,  4510, -3871, -2788
13614,  4463, -3808, -2867
13624,  4433, -3759, -2944
13633,  4399, -3728, -3007
13644,  4363, -3727, -3072
13653,  4358, -3748, -3129
13664,  4355, -3750, -3167
13673,  4355, -3748, -3201
13684,  4379, -3766, -3226
13694,  4396, -3772, -3234
13703,  4391, -3765, -3209
13714,  4367, -3750, -3144
13723,  4332, -3749, -3082
13734,  4298, -3771, -3015
13743,  4290, -3810, -2955
13753,  4288, -3867, -2889
13764,  4277, -3951, -2816
13773,  4251, -4029, -2713
13784,  4206, -4085, -2582
13793,  4177, -4122, -2479
13804,  4137, -4124, -2408
13813,  4112, -4095, -2357
13823,  4124, -4070, -2381
13834,  4177, -4056, -2476
13843,  4218, -4042, -2595
13854,  4219, -3988, -2726
13863,  4202, -3952, -2833
13873,  4186, -3943, -2891
13884,  4176, -3951, -2902
13893,  4146, -3975, -2872
13904,  4103, -3991, -2772
13914,  4086, -3995, -2691
13923,  4115, -4007, -2664
13934,  4161, -4041, -2689
13944,  4193, -4075, -2721
13953,  4223, -4119, -2744
13964,  4262, -4155, -2787
13973,  4279, -4144, -2818
13984,  4271, -4112, -2808
13993,  4260, -4076, -2782
14003,  4261, -4076, -2755
14014,  4274, -4095, -2753
14023,  4303, -4134, -2787
14034,  4328, -4163, -2819
14043,  4315, -4149, -2852
14053,  4292, -4082, -2862
14064,  4283, -4011, -2859
14073,  4278, -3957, -2854
14084,  4284, -3916, -2862
14093,  4278, -3918, -2832
14103,  4276, -3950, -2820
14114,  4302, -4000, -2836
14123,  4324, -4050, -2856
14134,  4318, -4079, -2843
14143,  4315, -4075, -2823
14152,  4303, -4037, -2794
14163,  4280, -3981, -2772
14173,  4303, -3962, -2782
14183,  4323, -3956, -2804
14193,  4321, -3964, -2829
14204,  4345, -4001, -2830
14213,  4322, -3999, -2783
14222,  4286, -3989, -2714
14233,  4273, -4005, -2660
14243,  4266, -4058, -2608
14254,  4245, -4126, -2509
14263,  4216, -4199, -2415
14272,  4210, -4248, -2329
14283,  4210, -4247, -2226
14292,  4208, -4241, -2218
14303,  4237, -4247, -2274
14313,  4248, -4298, -2336
14324,  4226, -4341, -2359
14333,  4178, -4400, -2372
14342,  4101, -4492, -2379
14353,  4046, -4608, -2445
14362,  4003, -4712, -2474
14373,  3898, -4770, -2433
14383,  3757, -4820, -2334
14394,  3630, -4888, -2200
14403,  3506, -4924, -2119
14412,  3365, -4954, -2055
14423,  3247, -5055, -1970
14432,  3186, -5110, -1949
14443,  3158, -5086, -2005
14453,  3112, -5061, -2066
14462,  3006, -4965, -2106
14473,  2871, -4819, -2097
14482,  2773, -4717, -2157
14493,  2747, -4667, -2223
14502,  2742, -4668, -2223
14513,  2772, -4698, -2294
14523,  2841, -4684, -2430
14532,  2932, -4616, -2597
14543,  3049, -4474, -2820
14552,  3207, -4317, -3046
14563,  3401, -4144, -3338
14572,  3591, -3862, -3630
14583,  3764, -3547, -3844
14593,  3935, -3256, -4022
14602,  4130, -3032, -4171
14613,  4359, -2881, -4305
14622,  4561, -2774, -4404
14633,  4711, -2714, -4400
14642,  4847, -2703, -4378
14652,  4998, -2695, -4374
14663,  5171, -2658, -4366
14672,  5364, -2580, -4363
14683,  5648, -2485, -4344
14692,  6028, -2395, -4352
14703,  6489, -2353, -4397
14712,  7057, -2353, -4475
14722,  7838, -2409, -4557
14733,  8704, -2423, -4679
14742,  9681, -2429, -4883
14753, 10708, -2454, -5201
14762, 11572, -2524, -5653
14773, 12385, -2760, -6264
14782, 13244, -3152, -6962
14792, 14121, -3561, -7719
14803, 15097, -3838, -8387
14812, 16075, -4000, -8929
14823, 16605, -3867, -9318
14832, 16494, -3383, -9407
14843, 15723, -2676, -9129
14853, 14722, -2223, -8721
14862, 13756, -2222, -8136
14873, 12449, -2603, -7625
14882, 10962, -3575, -7320
14893,  9358, -4952, -7197
14902,  7525, -6127, -7032
14912,  5149, -7486, -5386
14922,  3672, -8368, -5537
14932,  1898, -6990, -5367
14943,  -195, -4327, -4263
14952, -2060, -2037, -2761
14963, -3286,  -978, -1395
14972, -3977, -1128,  -492
14981, -4482, -1688,   -20
14992, -4829, -2271,   166
15002, -4812, -3122,   238
15013, -4673, -3793,   449
15022, -4725, -3939,   772
15033, -4775, -3918,  1182
15042, -4448, -4016,  1284
15051, -3914, -3917,  1222
15062, -3337, -3663,  1233
15072, -2639, -3417,  1364
15083, -1934, -3257,  1504
15092, -1316, -3217,  1605
15103,  -801, -3311,  1649
15112,  -398, -3514,  1659
15121,  -137, -3724,  1732
15132,    78, -3975,  1735
15142,   277, -4175,  1591
15153,   457, -4288,  1498
15162,   647, -4412,  1399
15171,   788, -4545,  1309
15182,   872, -4710,  1285
15192,   930, -4948,  1320
15203,   981, -5171,  1414
15212,  1087, -5319,  1505
15221,  1184, -5275,  1579
15232,  1312, -5103,  1596
15241,  1508, -4872,  1491
15252,  1694, -4645,  1351
15262,  1848, -4559,  1213
15271,  1935, -4569,  1167
15282,  1967, -4603,  1213
15291,  2017, -4652,  1273
15302,  2128, -4724,  1284
15312,  2301, -4812,  1244
15323,  2453, -4867,  1169
15332,  2555, -4853,  1122
15341,  2606, -4790,  1098
15352,  2683, -4766,  1052
15361,  2742, -4754,  1015
15372,  2812, -4772,   984
15382,  2920, -4786,   960
15393,  3022, -4756,   910
15402,  3114, -4675,   845
15411,  3182, -4555,   768
15422,  3219, -4433,   733
15431,  3255, -4332,   773
15442,  3284, -4299,   860
15452,  3335, -4288,   953
15462,  3378, -4259,  1052
15472,  3415, -4226,  1134
15481,  3470, -4194,  1149
15492,  3537, -4196,  1092
15501,  3587, -4181,  1011
15512,  3612, -4149,   909
15522,  3607, -4159,   785
15531,  3586, -4202,   681
15542,  3548, -4270,   618
15551,  3522, -4366,   614
15562,  3525, -4537,   616
15572,  3512, -4741,   613
15581,  3496, -4937,   590
15592,  3494, -5068,   553
15601,  3481, -5065,   498
15612,  3509, -4960,   415
15621,  3575, -4825,   316
15632,  3630, -4674,   258
15642,  3654, -4544,   268
15651,  3685, -4516,   303
15662,  3700, -4611,   364
15671,  3674, -4805,   506
15682,  3637, -5057,   663
15691,  3626, -5275,   776
15702,  3644, -5370,   835
15712,  3677, -5320,   785
15721,  3750, -5188,   661
15732,  3821, -4964,   478
15741,  3890, -4702,   272
15752,  3938, -4452,   116
15761,  3944, -4261,    52
15771,  3930, -4224,    60
15782,  3935, -4365,    67
15791,  3933, -4610,    68
15802,  3890, -4845,    85
15811,  3803, -4992,   138
15822,  3705, -5031,   210
15831,  3634, -4997,   278
15841,  3600, -4938,   349
15852,  3598, -4861,   391
15861,  3618, -4763,   393
15872,  3648, -4683,   362
15881,  3665, -4635,   318
15890,  3657, -4624,   272
15901,  3642, -4667,   245
15911,  3630, -4775,   229
15922,  3618, -4889,   261
15931,  3599, -5022,   315
15942,  3595, -5132,   372
15951,  3566, -5174,   437
15960,  3510, -5149,   493
15971,  3496, -5116,   516
15981,  3502, -5091,   507
15992,  3533, -5058,   492
16001,  3584, -5030,   456
16012,  3643, -5031,   372
16021,  3687, -5048,   291
16030,  3693, -5068,   256
16041,  3663, -5052,   256
16051,  3631, -5007,   281
16062,  3636, -4943,   299
16071,  3677, -4882,   302
16082,  3733, -4815,   280
16091,  3799, -4762,   217
16100,  3870, -4736,   121
16111,  3928, -4712,     0
16121,  3940, -4680,   -47
16132,  3908, -4666,   -10
16141,  3887, -4662,    24
16150,  3890, -4651,    49
16161,  3864, -4624,    84
16170,  3854, -4622,    82
16181,  3847, -4663,    54
16191,  3840, -4765,    43
16202,  3854, -4888,    32
16211,  3857, -4961,    18
16220,  3837, -4967,    31
16231,  3821, -4922,    23
16240,  3821, -4864,     2
16251,  3804, -4798,    17
16261,  3777, -4767,    57
16270,  3720, -4774,   115
16281,  3667, -4835,   184
16290,  3598, -4916,   268
16301,  3500, -5012,   357
16311,  3316, -5102,   472
16320,  3114, -5179,   598
16331,  2905, -5259,   700
16340,  2698, -5291,   796
16351,  2517, -5292,   866
16361,  2364, -5286,   943
16372,  2203, -5292,  1034
16381,  2065, -5308,  1103
16390,  1931, -5321,  1201
16401,  1799, -5341,  1328
16410,  1700, -5374,  1438
16421,  1660, -5430,  1559
16431,  1664, -5503,  1606
16441,  1716, -5542,  1565
16451,  1839, -5571,  1393
16460,  2031, -5570,  1138
16471,  2257, -5523,   775
16480,  2546, -5469,   320
16491,  2885, -5442,  -149
16501,  3161, -5353,  -521
16510,  3306, -5195,  -703
16521,  3446, -5075,  -730
16530,  3635, -5040,  -779
16541,  3854, -5007,  -882
16550,  4105, -4958, -1022
16561,  4408, -4902, -1256
16571,  4738, -4786, -1588
16580,  5074, -4643, -2006
16591,  5385, -4558, -2522
16600,  5610, -4504, -3023
16611,  5776, -4488, -3424
16620,  5957, -4495, -3768
16631,  6117, -4512, -4061
16641,  6239, -4462, -4239
16650,  6367, -4418, -4343
16661,  6496, -4379, -4364
16670,  6556, -4296, -4315
16681,  6560, -4230, -4244
16690,  6503, -4217, -4157
16700,  6404, -4218, -4060
16711,  6373, -4270, -4018
16720,  6378, -4310, -4030
16731,  6285, -4221, -4018
16740,  6087, -4022, -3895
16751,  5904, -3886, -3661
16760,  5779, -3872, -3361
16770,  5724, -3938, -3172
16781,  5689, -4007, -3088
16790,  5684, -4098, -3059
16801,  5708, -4201, -3011
16810,  5695, -4252, -2940
16820,  5669, -4266, -2927
16830,  5630, -4199, -3044
16840,  5586, -4070, -3266
16851,  5482, -3907, -3558
16860,  5418, -3799, -3803
16871,  5283, -3632, -3897
16880,  5129, -3441, -3859
16890,  5014, -3272, -3781
16901,  5022, -3222, -3780
16910,  5100, -3296, -3871
16921,  5134, -3460, -4019
16930,  5157, -3724, -4197
16940,  5193, -4063, -4379
16951,  5202, -4390, -4470
16960,  5147, -4620, -4419
16971,  4997, -4674, -4210
16980,  4790, -4573, -3994
16989,  4675, -4421, -3891
17000,  4728, -4265, -3948
17010,  4898, -4088, -4086
17021,  5045, -3877, -4164
17030,  5107, -3639, -4104
17039,  5137, -3508, -3965
17050,  5140, -3622, -3787
17060,  5053, -3902, -3605
17071,  4923, -4316, -3560
17080,  5164, -5164, -3682
17089,  5360, -5967, -3794
17100,  5298, -6338, -3718
17110,  5148, -6154, -3604
17121,  5062, -5830, -3423
17130,  5042, -5460, -3232
17139,  5103, -5115, -3118
17150,  5186, -4834, -3070
17159,  5264, -4610, -3017
17170,  5303, -4401, -2930
17180,  5347, -4225, -2817
17191,  5342, -4134, -2732
17200,  5325, -4133, -2709
17209,  5282, -4175, -2713
17220,  5202, -4261, -2689
17230,  5032, -4382, -2613
17240,  4773, -4604, -2508
17250,  4437, -4913, -2391
17259,  4376, -4968, -2383
17270,  4398, -4869, -2348
17279,  4431, -4809, -2365
17290,  4434, -4825, -2413
17300,  4431, -4851, -2429
17309,  4430, -4842, -2419
17320,  4439, -4860, -2446
17329,  4465, -4803, -2440
17340,  4465, -4793, -2437
17350,  4451, -4806, -2434
17360,  4438, -4799, -2416
17370,  4415, -4799, -2422
17379,  4411, -4801, -2441
17390,  4421, -4776, -2437
17399,  4428, -4781, -2453
17410,  4440, -4783, -2470
17420,  4448, -4774, -2470
17429,  4473, -4841, -2545
17440,  4524, -4842, -2631
17449,  4527, -4825, -2665
17460,  4507, -4813, -2614
17469,  4491, -4758, -2500
17480,  4478, -4718, -2388
17490,  4522, -4709, -2322
17499,  4596, -4736, -2300
17510,  4624, -4736, -2267
17519,  4586, -4737, -2221
17530,  4539, -4722, -2132
17539,  4518, -4702, -2033
17549,  4494, -4692, -1971
17560,  4411, -4703, -1943
17569,  4345, -4694, -1946
17580,  4385, -4716, -1984
17589,  4431, -4748, -2028
17600,  4452, -4758, -2050
17610,  4458, -4753, -2033
17619,  4463, -4741, -1984
17630,  4465, -4725, -1927
17639,  4460, -4734, -1891
17650,  4464, -4752, -1896
17659,  4462, -4750, -1911
17669,  4454, -4757, -1920
17680,  4447, -4749, -1917
17689,  4458, -4734, -1911
17700,  4442, -4742, -1919
17709,  4415, -4741, -1917
17719,  4391, -4751, -1937
17729,  4373, -4763, -1965
17739,  4356, -4779, -2006
17750,  4344, -4792, -2058
17759,  4345, -4794, -2113
17770,  4380, -4785, -2177
17779,  4423, -4773, -2230
17789,  4456, -4756, -2263
17800,  4494, -4749, -2300
17809,  4499, -4737, -2304
17820,  4501, -4728, -2300
17829,  4511, -4740, -2307
17840,  4557, -4771, -2352
17849,  4570, -4722, -2356
17859,  4572, -4735, -2362
17870,  4565, -4734, -2337
