time,accx,accy,accz
8, -3286, -2810, -1856
18, -3277, -2818, -1854
29, -3277, -2806, -1856
38, -3281, -2797, -1860
47, -3289, -2790, -1862
58, -3290, -2804, -1869
68, -3287, -2812, -1867
79, -3281, -2810, -1867
88, -3288, -2803, -1859
97, -3288, -2794, -1845
108, -3288, -2795, -1841
118, -3287, -2796, -1837
129, -3283, -2793, -1838
138, -3282, -2803, -1838
147, -3283, -2801, -1844
158, -3285, -2801, -1858
167, -3286, -2808, -1863
178, -3286, -2810, -1866
188, -3292, -2809, -1873
197, -3288, -2806, -1870
208, -3288, -2810, -1866
217, -3289, -2805, -1862
228, -3288, -2803, -1863
238, -3284, -2803, -1859
247, -3287, -2805, -1855
258, -3283, -2807, -1851
267, -3277, -2805, -1848
278, -3282, -2803, -1847
288, -3279, -2802, -1849
297, -3277, -2804, -1848
308, -3279, -2809, -1851
317, -3279, -2805, -1853
328, -3284, -2802, -1858
337, -3291, -2797, -1858
347, -3292, -2799, -1861
358, -3288, -2808, -1860
367, -3282, -2796, -1865
378, -3284, -2793, -1866
387, -3283, -2803, -1871
398, -3280, -2801, -1868
408, -3281, -2798, -1865
417, -3285, -2786, -1855
428, -3283, -2790, -1846
437, -3283, -2797, -1845
448, -3278, -2794, -1845
457, -3281, -2797, -1851
467, -3286, -2805, -1856
478, -3286, -2804, -1864
487, -3285, -2803, -1868
498, -3286, -2801, -1866
507, -3285, -2797, -1862
518, -3286, -2798, -1861
527, -3281, -2798, -1862
537, -3285, -2796, -1864
548, -3282, -2789, -1857
557, -3282, -2792, -1856
568, -3280, -2795, -1850
577, -3276, -2796, -1851
588, -3275, -2797, -1854
597, -3276, -2797, -1854
608, -3274, -2798, -1854
617, -3272, -2797, -1851
627, -3276, -2802, -1852
638, -3278, -2804, -1852
647, -3283, -2802, -1856
658, -3284, -2804, -1860
667, -3286, -2806, -1858
676, -3291, -2809, -1862
687, -3294, -2806, -1851
697, -3289, -2806, -1847
708, -3283, -2804, -1852
717, -3283, -2804, -1859
728, -3282, -2803, -1861
737, -3280, -2805, -1862
746, -3278, -2805, -1856
757, -3276, -2800, -1862
767, -3275, -2798, -1860
778, -3278, -2799, -1856
787, -3278, -2799, -1857
798, -3280, -2798, -1861
807, -3280, -2799, -1863
817, -3283, -2794, -1859
828, -3283, -2795, -1855
837, -3285, -2801, -1853
848, -3285, -2798, -1857
857, -3285, -2801, -1855
866, -3285, -2808, -1861
877, -3290, -2805, -1859
887, -3287, -2800, -1861
897, -3287, -2802, -1863
907, -3286, -2805, -1854
916, -3287, -2809, -1856
927, -3288, -2808, -1862
936, -3286, -2803, -1868
947, -3282, -2804, -1868
957, -3280, -2806, -1864
968, -3279, -2805, -1855
977, -3282, -2803, -1855
986, -3283, -2801, -1859
997, -3287, -2792, -1858
1007, -3294, -2787, -1858
1017, -3295, -2785, -1869
1027, -3306, -2806, -1878
1036, -3335, -2781, -1852
1047, -3374, -2651, -1733
1057, -3383, -2533, -1620
1067, -3338, -2585, -1671
1077, -3335, -2769, -1819
1086, -3339, -2838, -1893
1097, -3357, -2836, -1914
1106, -3297, -2897, -2024
1117, -3206, -3003, -2148
1127, -3153, -3034, -2166
1136, -3295, -2896, -2120
1147, -3365, -2843, -1989
1156, -3309, -2810, -1826
1167, -3213, -2732, -1752
1177, -3052, -2732, -1761
1186, -2971, -2768, -1846
1197, -2970, -2840, -1950
1206, -3025, -2861, -1996
1217, -3051, -2874, -2008
1226, -3070, -2910, -2024
1237, -3095, -2904, -1991
1247, -3123, -2875, -1932
1256, -3145, -2841, -1878
1267, -3359, -2712, -1840
1276, -3330, -2699, -1754
1287, -3160, -2719, -1703
1296, -3013, -2747, -1711
1306, -3011, -2738, -1726
1317, -3061, -2748, -1738
1326, -3109, -2755, -1741
1337, -3153, -2737, -1732
1346, -3171, -2727, -1716
1356, -3156, -2708, -1703
1367, -3148, -2714, -1720
1376, -3152, -2769, -1767
1387, -3159, -2803, -1807
1396, -3169, -2824, -1832
1407, -3164, -2829, -1848
1416, -3158, -2818, -1856
1426, -3160, -2823, -1863
1437, -3160, -2824, -1870
1446, -3173, -2820, -1879
1457, -3179, -2848, -1905
1466, -3184, -2851, -1894
1476, -3187, -2820, -1870
1487, -3176, -2798, -1850
1496, -3172, -2784, -1828
1507, -3167, -2769, -1821
1516, -3163, -2783, -1847
1527, -3170, -2791, -1858
1536, -3180, -2796, -1858
1546, -3203, -2805, -1868
1557, -3221, -2810, -1869
1566, -3220, -2820, -1878
1577, -3210, -2839, -1887
1586, -3190, -2831, -1888
1596, -3169, -2807, -1880
1606, -3151, -2812, -1892
1616, -3146, -2804, -1879
1627, -3144, -2799, -1873
1636, -3158, -2811, -1877
1646, -3168, -2806, -1869
1657, -3168, -2813, -1882
1666, -3170, -2824, -1885
1675, -3172, -2825, -1877
1686, -3170, -2829, -1883
1696, -3172, -2814, -1873
1707, -3164, -2808, -1879
1716, -3160, -2819, -1900
1727, -3158, -2811, -1896
1736, -3164, -2801, -1886
1745, -3175, -2795, -1877
1756, -3172, -2769, -1853
1766, -3182, -2760, -1844
1777, -3186, -2762, -1836
1786, -3187, -2746, -1827
1795, -3185, -2751, -1832
1806, -3183, -2767, -1856
1816, -3173, -2785, -1879
1826, -3165, -2819, -1915
1836, -3157, -2851, -1949
1847, -3148, -2873, -1977
1856, -3148, -2854, -1970
1865, -3150, -2838, -1953
1876, -3154, -2826, -1935
1886, -3152, -2810, -1907
1897, -3197, -2841, -1822
1906, -3241, -2845, -1756
1915, -3236, -2848, -1743
1926, -3155, -2889, -1808
1935, -3082, -2949, -1847
1946, -3081, -2970, -1865
1956, -3117, -2961, -1870
1965, -3146, -2928, -1870
1976, -3125, -2896, -1885
1985, -3057, -2942, -1961
1996, -2997, -3037, -2056
2006, -2974, -3114, -2094
2017, -2999, -3184, -2102
2026, -3005, -3181, -2106
2035, -3023, -3099, -2138
2046, -3035, -2946, -2163
2055, -3020, -2768, -2215
2066, -2971, -2605, -2284
2076, -2908, -2470, -2339
2085, -2896, -2376, -2366
2096, -2890, -2352, -2351
2105, -2903, -2408, -2321
2116, -2930, -2563, -2298
2126, -2926, -2815, -2255
2135, -2950, -3034, -2227
2146, -2983, -3184, -2195
2155, -3017, -3252, -2164
2166, -3086, -3227, -2132
2176, -3139, -3167, -2062
2185, -3167, -3080, -2015
2196, -3147, -2994, -2000
2205, -3112, -2947, -1983
2216, -3077, -2931, -1980
2225, -3026, -2983, -1989
2236, -2966, -3095, -2023
2246, -2936, -3169, -2055
2255, -2957, -3144, -2101
2266, -2962, -3058, -2134
2275, -2982, -2921, -2136
2286, -2982, -2811, -2127
2295, -2957, -2768, -2137
2305, -2937, -2798, -2150
2316, -2908, -2872, -2174
2325, -2864, -2971, -2233
2336, -2802, -3019, -2302
2345, -2788, -2937, -2401
2355, -2766, -2810, -2510
2366, -2783, -2663, -2670
2375, -2799, -2550, -2793
2386, -2781, -2556, -2830
2395, -2768, -2617, -2834
2406, -2767, -2660, -2780
2415, -2743, -2761, -2690
2425, -2707, -2914, -2616
2436, -2685, -3020, -2548
2445, -2685, -3032, -2432
2456, -2744, -2923, -2287
2465, -2819, -2771, -2125
2475, -2861, -2622, -1965
2486, -2887, -2521, -1835
2495, -2876, -2511, -1770
2506, -2830, -2536, -1770
2515, -2772, -2568, -1784
2524, -2764, -2520, -1781
2535, -2811, -2375, -1783
2545, -2843, -2232, -1783
2556, -2868, -2137, -1793
2565, -2872, -2103, -1801
2576, -2858, -2139, -1802
2585, -2885, -2213, -1802
2595, -2959, -2291, -1761
2606, -3029, -2401, -1705
2615, -3059, -2567, -1685
2626, -3058, -2747, -1701
2635, -3037, -2886, -1754
2644, -3019, -2946, -1846
2655, -2991, -2965, -1965
2665, -2957, -2954, -2059
2676, -2970, -2908, -2104
2685, -3042, -2832, -2059
2696, -3107, -2759, -1987
2705, -3089, -2760, -1964
2714, -3023, -2842, -1980
2726, -2993, -2899, -2028
2735, -3002, -2882, -2079
2746, -3005, -2851, -2130
2755, -3009, -2783, -2186
2764, -2997, -2699, -2245
2775, -2955, -2654, -2337
2785, -2906, -2645, -2440
2796, -2832, -2651, -2569
2805, -2740, -2660, -2684
2814, -2697, -2666, -2747
2825, -2703, -2678, -2677
2834, -2741, -2694, -2515
2845, -2757, -2705, -2369
2855, -2719, -2676, -2275
2864, -2657, -2604, -2221
2875, -2606, -2518, -2172
2884, -2589, -2435, -2122
2895, -2591, -2464, -2089
2905, -2624, -2584, -2067
2916, -2682, -2742, -2040
2925, -2757, -2911, -2005
2934, -2858, -3025, -1946
2945, -2953, -3111, -1900
2954, -3017, -3213, -1893
2966, -3034, -3298, -1908
2975, -3043, -3311, -1931
2984, -3041, -3266, -1972
2995, -3004, -3193, -2038
3004, -2963, -3114, -2105
3015, -2922, -3019, -2164
3025, -2881, -2879, -2196
3034, -2848, -2751, -2220
3045, -2822, -2661, -2210
3054, -2796, -2614, -2182
3065, -2775, -2598, -2171
3075, -2796, -2603, -2159
3084, -2835, -2604, -2117
3095, -2871, -2593, -2094
3104, -2906, -2558, -2076
3115, -2935, -2520, -2084
3124, -2948, -2493, -2137
3134, -2927, -2496, -2225
3145, -2892, -2579, -2322
3154, -2860, -2694, -2384
3165, -2860, -2821, -2420
3174, -2864, -2973, -2420
3185, -2887, -3142, -2374
3195, -2914, -3268, -2359
3204, -2930, -3306, -2372
3215, -2945, -3248, -2408
3224, -2952, -3153, -2465
3234, -2947, -3024, -2509
3245, -2922, -2921, -2545
3254, -2864, -2879, -2574
3265, -2816, -2890, -2585
3274, -2791, -2937, -2547
3285, -2792, -2966, -2496
3294, -2821, -2924, -2442
3304, -2864, -2822, -2406
3315, -2863, -2744, -2375
3324, -2858, -2678, -2380
3335, -2860, -2658, -2389
3344, -2872, -2706, -2378
3354, -2918, -2775, -2340
3365, -2972, -2853, -2306
3374, -3023, -2951, -2291
3385, -3070, -3037, -2293
3394, -3112, -3091, -2300
3403, -3130, -3125, -2302
3414, -3134, -3174, -2317
3424, -3112, -3200, -2361
3435, -3099, -3183, -2452
3444, -3103, -3147, -2544
3455, -3118, -3121, -2622
3464, -3138, -3120, -2695
3474, -3163, -3177, -2789
3485, -3137, -3319, -2905
3494, -3099, -3490, -2984
3505, -3158, -3599, -3119
3514, -3223, -3660, -3358
3523, -3210, -3802, -3642
3534, -3109, -4119, -3929
3544, -2966, -4562, -4183
3555, -2922, -5099, -4441
3564, -3068, -5439, -4818
3575, -3233, -5421, -5401
3584, -3284, -5110, -6345
3594, -3200, -4573, -7620
3604, -2861, -4010, -8896
3614, -2287, -3532,-10113
3625, -1729, -3048,-10969
3634, -1139, -2707,-11493
3643,  -727, -2541,-11826
3654,  -741, -2092,-11771
3664,  -929, -1647,-11389
3675, -1342, -1269,-10673
3684, -1773,  -885, -9670
3693, -2102,  -653, -8351
3704, -2522,  -545, -6604
3714, -3122,  -401, -4388
3724, -3908,  -349, -1827
3734, -4443,  -652,   562
3743, -4667, -1032,  2470
3754, -4786, -1204,  3819
3763, -4721, -1238,  4544
3774, -4484, -1378,  4557
3784, -4145, -1653,  4156
3795, -3779, -1981,  3537
3804, -3672, -2107,  2911
3813, -3723, -2031,  2250
3824, -3751, -1972,  1461
3833, -3726, -2062,   740
3844, -3679, -2315,    85
3854, -3617, -2662,  -459
3865, -3640, -2957,  -863
3874, -3720, -3206, -1148
3883, -3818, -3471, -1350
3894, -3946, -3610, -1405
3903, -4088, -3609, -1348
3914, -4248, -3473, -1176
3924, -4425, -3305,  -933
3933, -4606, -3162,  -705
3944, -4666, -3080,  -583
3953, -4663, -3110,  -538
3964, -4596, -3246,  -558
3973, -4498, -3481,  -658
3984, -4362, -3724,  -790
3994, -4249, -3842,  -924
4003, -4234, -3746, -1034
4014, -4239, -3494, -1146
4023, -4194, -3172, -1310
4034, -4084, -2902, -1496
4043, -3944, -2695, -1674
4054, -3775, -2565, -1838
4064, -3645, -2460, -1964
4073, -3502, -2419, -2046
4084, -3365, -2421, -2141
4093, -3273, -2377, -2171
4104, -3221, -2344, -2163
4113, -3159, -2309, -2122
4123, -3103, -2241, -2038
4134, -3083, -2117, -1959
4143, -3110, -1955, -1926
4154, -3125, -1913, -1952
4163, -3073, -2050, -2110
4174, -2988, -2309, -2431
4184, -2889, -2550, -2773
4193, -2816, -2619, -3040
4204, -2803, -2557, -3238
4213, -2807, -2473, -3385
4224, -2770, -2447, -3493
4233, -2745, -2486, -3519
4243, -2772, -2541, -3444
4254, -2798, -2618, -3278
4263, -2870, -2715, -3060
4274, -2937, -2846, -2808
4283, -2965, -2991, -2602
4294, -2943, -3098, -2499
4303, -2884, -3134, -2531
4313, -2849, -3068, -2664
4324, -2798, -2938, -2852
4333, -2702, -2825, -3086
4344, -2611, -2699, -3323
4353, -2559, -2570, -3501
4364, -2520, -2492, -3583
4373, -2481, -2520, -3587
4383, -2463, -2586, -3535
4394, -2522, -2594, -3436
4403, -2635, -2583, -3262
4414, -2749, -2628, -3044
4423, -2880, -2726, -2816
4434, -2957, -2857, -2596
4443, -2993, -2955, -2512
4453, -2957, -3034, -2603
4464, -2864, -3079, -2813
4473, -2784, -3042, -3054
4482, -2739, -2919, -3262
4493, -2712, -2736, -3415
4503, -2674, -2607, -3491
4514, -2635, -2539, -3500
4523, -2612, -2522, -3454
4533, -2630, -2523, -3368
4544, -2659, -2538, -3291
4553, -2693, -2590, -3218
4562, -2706, -2688, -3163
4573, -2686, -2808, -3127
4583, -2672, -2890, -3135
4594, -2673, -2922, -3132
4603, -2703, -2938, -3100
4612, -2758, -2966, -3067
4623, -2806, -3006, -3068
4632, -2868, -3015, -3126
4643, -2944, -2984, -3221
4653, -3031, -2956, -3335
4664, -3156, -3019, -3461
4673, -3425, -3129, -3552
4682, -3952, -3249, -3650
4693, -4837, -3340, -3832
4703, -6182, -3359, -4121
4713, -7833, -3301, -4493
4723, -9445, -3167, -4899
4734,-10875, -2871, -5337
4743,-11882, -2398, -5812
4752,-12297, -1948, -6336
4763,-12191, -1594, -6912
4773,-11648, -1280, -7383
4782,-10786,  -968, -7576
4793, -9617,  -659, -7395
4802, -8376,  -444, -6930
4814, -7250,  -517, -6394
4823, -6112,  -943, -5686
4832, -5010, -1677, -4776
4843, -3965, -2525, -3838
4852, -2907, -3138, -2972
4863, -2040, -3330, -2238
4873, -1482, -2971, -1539
4882,  -887, -2379,  -736
4893,  -241, -1871,    69
4902,   435, -1662,   612
4913,  1101, -1741,   810
4922,  1622, -2235,   445
4933,  2094, -2902,  -217
4943,  2364, -3321,  -733
4952,  2295, -3360,  -923
4963,  2095, -3256, -1116
4972,  1964, -3302, -1374
4983,  1787, -3422, -1645
4993,  1614, -3609, -1926
5003,  1364, -3823, -2197
5013,  1064, -4049, -2515
5022,   731, -4333, -2789
5033,   261, -4561, -2938
5042,  -264, -4804, -3107
5053,  -736, -4893, -3304
5063, -1203, -4627, -3435
5072, -1707, -4151, -3551
5083, -2129, -3640, -3618
5092, -2469, -3249, -3611
5103, -2745, -3050, -3603
5112, -2962, -2943, -3564
5123, -3114, -2971, -3610
5133, -3213, -3109, -3755
5142, -3297, -3198, -3919
5153, -3403, -3146, -4037
5162, -3505, -2961, -4094
5172, -3571, -2724, -4030
5183, -3589, -2502, -3818
5192, -3548, -2331, -3535
5203, -3439, -2284, -3268
5212, -3336, -2351, -3049
5222, -3233, -2511, -2944
5233, -3200, -2646, -2874
5242, -3224, -2761, -2845
5253, -3221, -2893, -2854
5262, -3257, -2938, -2879
5273, -3255, -2885, -2892
5282, -3248, -2767, -2877
5292, -3309, -2622, -2788
5303, -3419, -2525, -2602
5312, -3489, -2589, -2467
5323, -3423, -2782, -2558
5332, -3264, -2954, -2854
5341, -3119, -3017, -3262
5352, -3040, -2919, -3647
5362, -3007, -2721, -3941
5373, -3011, -2526, -4135
5382, -2999, -2428, -4150
5393, -3018, -2398, -4016
5402, -3061, -2441, -3784
5412, -3142, -2514, -3535
5422, -3240, -2634, -3323
5432, -3346, -2827, -3116
5443, -3429, -2993, -2959
5452, -3482, -3070, -2902
5463, -3491, -3031, -2908
5472, -3531, -2834, -2928
5482, -3559, -2557, -2957
5493, -3516, -2348, -3003
5502, -3466, -2220, -3019
5513, -3417, -2193, -2988
5522, -3382, -2256, -2948
5532, -3357, -2391, -2937
5542, -3332, -2635, -2986
5552, -3314, -2902, -3061
5563, -3307, -3098, -3128
5572, -3337, -3167, -3159
5581, -3364, -3104, -3178
5592, -3353, -2993, -3219
5602, -3323, -2879, -3292
5613, -3264, -2770, -3441
5622, -3166, -2662, -3605
5633, -3067, -2570, -3767
5642, -2977, -2527, -3855
5651, -2996, -2508, -3817
5662, -3068, -2545, -3663
5672, -3142, -2656, -3480
5683, -3229, -2766, -3318
5692, -3275, -2815, -3174
5701, -3313, -2802, -3041
5712, -3369, -2730, -2922
5721, -3420, -2653, -2804
5732, -3452, -2579, -2665
5742, -3481, -2523, -2508
5751, -3528, -2540, -2322
5762, -3607, -2633, -2044
5771, -3718, -2791, -1728
5782, -3840, -2976, -1411
5791, -3955, -3165, -1104
5802, -4087, -3299,  -761
5812, -4246, -3348,  -321
5823, -4402, -3353,   241
5832, -4594, -3346,   898
5841, -4745, -3393,  1582
5852, -4870, -3637,  2336
5861, -5047, -4131,  3206
5872, -5291, -4874,  4129
5882, -5453, -5759,  5021
5892, -5473, -6507,  5783
5902, -5371, -6933,  6366
5911, -5175, -6940,  6752
5922, -4834, -6530,  6767
5931, -4412, -5816,  6455
5942, -4035, -4976,  6016
5952, -3579, -4106,  5264
5961, -3326, -2995,  4072
5972, -3216, -1681,  2311
5981, -3021,  -583,   -20
5992, -2727,   -57, -2466
6001, -2697,   -57, -4336
6012, -3067,  -569, -5444
6022, -3521, -1458, -6153
6031, -4076, -2171, -6568
6042, -4861, -2332, -7102
6051, -5521, -2307, -8432
6062, -5774, -2277,-10091
6071, -5653, -2337,-11563
6081, -5117, -2696,-12643
6092, -4483, -3157,-13009
6101, -4193, -3613,-12638
6112, -4280, -3932,-11655
6121, -4477, -4280,-10329
6132, -4459, -4285, -9084
6142, -4398, -3704, -7967
6151, -4283, -2824, -6958
6162, -4092, -2035, -6146
6171, -3801, -1473, -5595
6182, -3468, -1174, -5289
6191, -3169, -1138, -5122
6201, -2940, -1344, -4928
6212, -2791, -1648, -4578
6221, -2714, -1864, -4160
6232, -2689, -1886, -3817
6241, -2768, -1743, -3529
6251, -2905, -1537, -3287
6262, -2993, -1467, -3153
6271, -2994, -1572, -3183
6282, -2944, -1752, -3274
6291, -2916, -1981, -3349
6302, -2954, -2249, -3309
6311, -3042, -2515, -3166
6321, -3132, -2772, -3007
6332, -3213, -2981, -2854
6341, -3294, -3107, -2712
6350, -3395, -3192, -2579
6361, -3479, -3228, -2518
6371, -3497, -3226, -2618
6382, -3438, -3215, -2867
6391, -3324, -3210, -3171
6400, -3288, -3176, -3328
6411, -3307, -3108, -3318
6421, -3311, -3046, -3245
6432, -3305, -2987, -3193
6441, -3332, -2921, -3129
6452, -3374, -2859, -3019
6461, -3464, -2781, -2859
6470, -3537, -2728, -2703
6481, -3591, -2736, -2566
6491, -3608, -2803, -2467
6502, -3625, -2920, -2394
6511, -3640, -3058, -2350
6520, -3635, -3138, -2340
6531, -3640, -3145, -2341
6541, -3678, -3045, -2356
6552, -3712, -2883, -2390
6561, -3708, -2730, -2466
6572, -3641, -2614, -2615
6581, -3557, -2522, -2817
6590, -3509, -2461, -3007
6601, -3504, -2473, -3109
6611, -3503, -2625, -3133
6622, -3504, -2822, -3113
6631, -3541, -2974, -3066
6640, -3594, -3097, -2976
6651, -3639, -3182, -2881
6661, -3680, -3224, -2800
6671, -3720, -3217, -2725
6681, -3680, -3230, -2671
6690, -3569, -3277, -2688
6701, -3413, -3320, -2797
6710, -3217, -3360, -2973
6721, -3009, -3389, -3166
6731, -2808, -3418, -3374
6742, -2626, -3415, -3562
6751, -2468, -3374, -3671
6760, -2350, -3309, -3696
6771, -2238, -3239, -3584
6780, -2075, -3202, -3440
6791, -1833, -3188, -3332
6801, -1519, -3177, -3255
6810, -1158, -3184, -3247
6821,  -752, -3184, -3287
6830,  -269, -3187, -3386
6841,   252, -3203, -3551
6850,   764, -3235, -3730
6861,  1275, -3311, -3909
6871,  1780, -3343, -4086
6880,  2175, -3224, -4237
6891,  2445, -2959, -4344
6900,  2623, -2611, -4404
6911,  2743, -2316, -4458
6921,  2780, -2159, -4587
6930,  2637, -2170, -4679
6941,  2246, -2339, -4697
6950,  1770, -2576, -4671
6961,  1392, -2867, -4722
6970,   944, -3030, -4822
6981,   373, -2923, -4889
6991,  -338, -2515, -4948
7000, -1186, -1903, -4886
7011, -2084, -1287, -4682
7020, -3089,  -781, -4198
7031, -4222,  -400, -3516
7040, -5440,   -73, -2925
7050, -6875,    48, -2521
7061, -8430,  -217, -2359
7070, -9910,  -692, -2325
7081,-10954, -1339, -2384
7090,-11545, -2254, -2388
7101,-11833, -3153, -2273
7110,-11927, -3691, -2130
7120,-11753, -3834, -2109
7131,-11310, -3705, -2222
7140,-10649, -3382, -2353
7151, -9894, -2923, -2484
7160, -9103, -2428, -2560
7170, -8392, -1966, -2553
7181, -7788, -1673, -2423
7190, -7298, -1698, -2127
7201, -6922, -1968, -1761
7211, -6613, -2385, -1408
7220, -6306, -2855, -1183
7231, -5952, -3232, -1198
7240, -5583, -3446, -1466
7250, -5233, -3461, -1895
7261, -4967, -3272, -2360
7270, -4743, -3027, -2813
7280, -4562, -2847, -3135
7291, -4411, -2834, -3344
7300, -4384, -2915, -3426
7311, -4418, -3066, -3354
7320, -4431, -3277, -3288
7330, -4372, -3487, -3283
7341, -4302, -3584, -3318
7350, -4220, -3571, -3395
7361, -4127, -3427, -3519
7370, -4047, -3175, -3625
7379, -3971, -2899, -3724
7390, -3941, -2617, -3810
7400, -3987, -2385, -3845
7411, -4028, -2311, -3809
7420, -4066, -2381, -3667
7431, -4071, -2545, -3498
7440, -3990, -2783, -3394
7449, -3861, -2977, -3346
7460, -3769, -3035, -3307
7470, -3725, -2954, -3231
7481, -3715, -2774, -3130
7490, -3712, -2591, -3003
7499, -3663, -2493, -2937
7510, -3582, -2476, -2925
7520, -3514, -2500, -2920
7530, -3449, -2546, -2943
7540, -3381, -2611, -2991
7551, -3324, -2686, -3052
7560, -3310, -2720, -3092
7569, -3333, -2682, -3126
7580, -3325, -2610, -3210
7590, -3310, -2541, -3311
7601, -3317, -2493, -3344
7610, -3340, -2467, -3326
7619, -3359, -2470, -3292
7630, -3359, -2518, -3235
7639, -3354, -2575, -3177
7650, -3340, -2615, -3172
7660, -3319, -2661, -3201
7671, -3328, -2677, -3227
7680, -3358, -2656, -3189
7689, -3396, -2639, -3114
7700, -3421, -2650, -3041
7710, -3416, -2698, -2986
7721, -3412, -2754, -2963
7730, -3421, -2789, -2976
7739, -3440, -2773, -3025
7750, -3425, -2741, -3139
7759, -3380, -2693, -3271
7770, -3338, -2645, -3389
7780, -3322, -2595, -3459
7789, -3336, -2573, -3462
7800, -3335, -2617, -3408
7809, -3327, -2680, -3376
7820, -3311, -2730, -3388
7830, -3271, -2761, -3448
7839, -3186, -2791, -3596
7850, -3078, -2770, -3808
7859, -2957, -2703, -4063
7870, -2877, -2628, -4296
7879, -2812, -2601, -4486
7890, -2721, -2660, -4654
7900, -2669, -2758, -4822
7909, -2633, -2859, -5009
7920, -2553, -2968, -5300
7930, -2431, -3083, -5687
7939, -2330, -3195, -6078
7950, -2306, -3217, -6448
7959, -2311, -3175, -6767
7970, -2246, -3192, -7018
7979, -2217, -3205, -7156
7989, -2365, -3184, -7167
8000, -2562, -3192, -7184
8009, -2712, -3253, -7356
8020, -2871, -3304, -7545
8029, -3050, -3343, -7668
8039, -3214, -3338, -7734
8050, -3338, -3214, -7752
8059, -3189, -2968, -8039
8070, -2883, -2575, -8568
8079, -2557, -2100, -8907
8090, -2340, -1636, -8830
8099, -2515, -1202, -8159
8109, -3188,  -845, -6863
8120, -4149,  -776, -5196
8129, -4993, -1212, -3576
8140, -5416, -1948, -2340
8149, -5233, -2807, -1885
8159, -4613, -3491, -2156
8169, -3820, -3764, -2902
8179, -3036, -3590, -3917
8190, -2438, -3072, -4789
8199, -2116, -2361, -5147
8210, -2246, -1611, -4852
8219, -2552, -1216, -4076
8229, -2655, -1378, -3151
8240, -2792, -1777, -2409
8249, -2811, -2254, -1911
8260, -2593, -2754, -1718
8269, -2249, -3149, -1750
8279, -1935, -3364, -1827
8290, -1835, -3241, -1732
8299, -1995, -2839, -1440
8310, -2257, -2355, -1102
8319, -2552, -1939,  -843
8328, -2874, -1598,  -644
8339, -3240, -1444,  -501
8349, -3648, -1524,  -335
8360, -4034, -1895,  -175
8369, -4441, -2478,   -91
8380, -4804, -3169,   -19
8389, -5105, -3862,    -8
8398, -5368, -4349,   -18
8409, -5492, -4586,   -68
8419, -5408, -4610,  -282
8430, -5189, -4425,  -654
8439, -4884, -4064, -1073
8448, -4590, -3591, -1444
8459, -4338, -3082, -1749
8469, -4071, -2697, -2001
8480, -3805, -2496, -2206
8489, -3576, -2454, -2364
8500, -3444, -2480, -2446
8509, -3434, -2482, -2417
8518, -3406, -2579, -2349
8529, -3314, -2759, -2373
8539, -3216, -2953, -2498
8550, -3104, -3099, -2616
8559, -3035, -3141, -2709
8568, -2948, -3140, -2767
8579, -2848, -3101, -2814
8588, -2759, -2997, -2860
8599, -2653, -2910, -2918
8609, -2542, -2869, -3034
8620, -2484, -2801, -3181
8629, -2447, -2775, -3314
8638, -2469, -2759, -3380
8649, -2515, -2763, -3384
8659, -2555, -2800, -3387
8669, -2577, -2853, -3411
8679, -2551, -2889, -3499
8688, -2492, -2881, -3647
8699, -2441, -2818, -3787
8708, -2440, -2702, -3855
8719, -2495, -2532, -3844
8729, -2557, -2370, -3755
8738, -2642, -2244, -3625
8749, -2738, -2181, -3481
8758, -2815, -2200, -3348
8769, -2872, -2323, -3261
8778, -2943, -2502, -3218
8789, -3049, -2666, -3206
8799, -3195, -2763, -3179
8808, -3394, -2791, -3133
8819, -3638, -2730, -3088
8828, -3920, -2631, -3075
8839, -4310, -2489, -3121
8848, -4866, -2345, -3249
8859, -5578, -2263, -3468
8869, -6458, -2215, -3719
8878, -7219, -2248, -3979
8889, -7853, -2262, -4316
8898, -8239, -2266, -4816
8909, -8499, -2313, -5502
8919, -8818, -2202, -6283
8928, -9153, -1882, -6964
8939, -9486, -1417, -7419
8948, -9646, -1075, -7667
8959, -9532,  -908, -7765
8968, -9069, -1057, -7873
8978, -8175, -1432, -7879
8989, -7347, -1795, -7669
8998, -6560, -2146, -7344
9009, -5928, -2172, -6804
9018, -5227, -1962, -6169
9028, -4437, -1600, -5543
9039, -3830,  -876, -4698
9048, -3203,  -103, -3744
9059, -2418,   371, -2840
9068, -1566,   395, -2082
9079,  -856,   157, -1546
9088,  -483,  -316, -1198
9098,  -278,  -869,  -739
9109,  -209, -1254,  -190
9118,  -261, -1321,   271
9129,  -118, -1285,   268
9138,   613, -1489,  -301
9148,  1715, -1878, -1054
9159,  2439, -2332, -1727
9168,  2618, -2994, -2346
9179,  2637, -3877, -2783
9188,  2438, -4750, -2923
9198,  2004, -5453, -2820
9209,  1518, -5897, -2475
9218,  1163, -6018, -2036
9229,  1052, -5953, -1766
9238,  1101, -5874, -1940
9247,  1101, -5748, -2513
9259,   945, -5625, -3183
9268,   543, -5490, -3814
9279,    67, -5477, -4495
9288,  -431, -5551, -5263
9297, -1005, -5565, -6003
9308, -1620, -5517, -6574
9318, -2190, -5249, -6959
9329, -2544, -4789, -7247
9338, -2697, -4240, -7399
9347, -2852, -3556, -7401
9358, -2969, -2868, -7225
9368, -2983, -2331, -6913
9379, -2930, -2005, -6579
9388, -2886, -1821, -6232
9399, -2891, -1749, -5846
9408, -2962, -1750, -5434
9417, -3055, -1787, -5036
9428, -3161, -1752, -4691
9438, -3227, -1664, -4443
9449, -3189, -1629, -4317
9458, -3126, -1645, -4275
9467, -3072, -1732, -4288
9478, -3024, -1903, -4325
9488, -3026, -2122, -4335
9497, -3047, -2391, -4324
9508, -3053, -2620, -4320
9518, -3086, -2696, -4340
9529, -3094, -2607, -4399
9538, -3074, -2436, -4506
9547, -3041, -2260, -4621
9558, -3008, -2108, -4710
9567, -2975, -2022, -4749
9578, -2973, -2003, -4726
9588, -3038, -2025, -4653
9599, -3121, -2169, -4598
9608, -3149, -2355, -4576
9617, -3193, -2488, -4563
9628, -3232, -2533, -4516
9638, -3282, -2492, -4426
9649, -3317, -2419, -4322
9658, -3337, -2315, -4224
9667, -3396, -2165, -4111
9678, -3442, -2067, -4025
9687, -3423, -2145, -4010
9698, -3406, -2344, -4042
9708, -3408, -2523, -4084
9717, -3439, -2610, -4106
9728, -3465, -2604, -4107
9737, -3498, -2539, -4109
9748, -3487, -2482, -4075
9758, -3474, -2453, -3970
9767, -3443, -2466, -3808
9778, -3400, -2534, -3643
9787, -3372, -2677, -3415
9798, -3412, -2844, -3117
9807, -3521, -3031, -2826
9818, -3603, -3220, -2650
9828, -3767, -3351, -2533
9837, -4069, -3489, -2335
9848, -4560, -3605, -1862
9857, -5140, -3620, -1130
9868, -5554, -3722,  -510
9878, -5812, -3886,  -136
9887, -6057, -4047,   125
9898, -6168, -4159,   253
9907, -6146, -4261,   167
9918, -5946, -4363,   -89
9927, -5732, -4452,  -291
9937, -5593, -4441,  -110
9948, -5354, -4432,   243
9957, -4937, -4491,   498
9968, -4412, -4528,   581
9977, -3843, -4544,   590
9988, -3192, -4567,   607
9998, -2643, -4521,   627
10007, -2341, -4457,   672
10018, -2101, -4501,   587
10027, -1861, -4418,   145
10038, -1651, -4037,  -782
10047, -1874, -3395, -1532
10057, -1411, -2949, -2401
10068, -1153, -2249, -3383
10077, -1047, -1459, -4410
10088, -1135,  -963, -5208
10097, -1268, -1066, -5797
10108, -1385, -1432, -6374
10117, -1482, -1739, -7054
10127, -1751, -1623, -7818
10138, -2262, -1028, -8747
10147, -2554,  -477, -9637
10158, -2784,  -192,-10051
10167, -3472,   118, -9820
10177, -4387,   471, -9041
10188, -5234,   295, -8076
10197, -5711,  -351, -7329
10208, -5761, -1083, -7109
10217, -5360, -1743, -7315
10226, -4778, -2006, -7716
10237, -4348, -1925, -8335
10247, -4076, -1656, -9226
10258, -4153, -1026, -9928
10267, -4427,  -353,-10189
10276, -4613,  -244,-10201
10287, -4432,  -877,-10251
10297, -3993, -1742,-10479
10308, -3517, -2282,-10840
10317, -3058, -2398,-11041
10326, -2771, -2248,-10879
10337, -2633, -2045,-10514
10347, -2570, -2035,-10046
10358, -2496, -2252, -9491
10367, -2394, -2557, -8911
10378, -2471, -2744, -8237
10387, -2656, -2787, -7364
10396, -2901, -2684, -6432
10407, -3084, -2465, -5645
10417, -3188, -2212, -5139
10428, -3244, -1999, -4834
10437, -3232, -1884, -4705
10446, -3142, -1898, -4740
10457, -3049, -1926, -4869
10467, -2986, -1911, -4953
10477, -2950, -1876, -4898
10487, -2967, -1927, -4738
10496, -2989, -2054, -4562
10507, -3017, -2178, -4481
10516, -3039, -2295, -4507
10527, -2942, -2429, -4612
10537, -2864, -2422, -4704
10548, -2796, -2259, -4770
10557, -2767, -1872, -4744
10566, -2770, -1301, -4663
10577, -2723,  -750, -4621
10586, -2697,  -434, -4693
10597, -2719,  -411, -4888
10607, -2661,  -757, -5089
10616, -2558, -1339, -5227
10627, -2479, -1938, -5305
10636, -2437, -2381, -5373
10647, -2390, -2636, -5492
10657, -2318, -2753, -5673
10668, -2255, -2748, -5912
10677, -2150, -2711, -6142
10686, -2007, -2688, -6286
10697, -1891, -2673, -6299
10706, -1805, -2719, -6195
10717, -1743, -2786, -6041
10727, -1681, -2801, -5887
10736, -1642, -2752, -5753
10747, -1545, -2684, -5715
10756, -1426, -2547, -5728
10767, -1303, -2368, -5738
10776, -1144, -2218, -5711
10787,  -997, -2119, -5623
10797,  -876, -2058, -5495
10806,  -743, -2019, -5291
10816,  -602, -1959, -5026
10827,  -392, -1873, -4754
10836,    -7, -1749, -4650
10847,   450, -1510, -4753
10856,  1050, -1200, -5036
10867,  1753,  -848, -5395
10876,  2397,  -451, -5721
10886,  2902,  -166, -6015
10897,  3355,  -150, -6291
10906,  3769,  -365, -6646
10917,  4023,  -745, -7043
10926,  4172, -1292, -7510
10936,  4125, -1958, -7924
10947,  3864, -2687, -8210
10956,  3559, -3351, -8453
10967,  3268, -3743, -8695
10976,  3109, -3765, -9002
10987,  2929, -3350, -9321
10996,  2611, -2650, -9599
11006,  2136, -1975, -9698
11017,  1525, -1582, -9633
11026,   728, -1497, -9395
11036,  -173, -1618, -9060
11047, -1323, -1712, -8566
11056, -2544, -1736, -7891
11067, -3732, -1717, -7231
11076, -4878, -1759, -6680
11086, -6135, -2567, -4612
11097, -6960, -2494, -4159
11106, -7527, -1815, -4097
11117, -7861, -1172, -4062
11126, -8163, -1108, -3547
11137, -8458, -1437, -2735
11146, -8655, -1894, -2373
11155, -8840, -2248, -2616
11166, -8953, -2389, -3044
11176, -8750, -2364, -3427
11187, -8326, -2194, -3674
11196, -7931, -2081, -3827
11207, -7641, -2073, -3887
11216, -7384, -2238, -3908
11225, -7102, -2427, -4005
11236, -6846, -2512, -4221
11246, -6487, -2462, -4538
11257, -6093, -2209, -4825
11266, -5814, -1735, -4864
11275, -5721, -1224, -4599
11286, -5678,  -898, -4178
11296, -5565,  -872, -3837
11307, -5367, -1087, -3796
11316, -5044, -1445, -4066
11325, -4662, -1809, -4548
11336, -4263, -2092, -5119
11345, -3833, -2264, -5696
11356, -3469, -2272, -6209
11366, -3226, -2192, -6526
11377, -3101, -2162, -6568
11386, -3063, -2251, -6360
11397, -3092, -2424, -6029
11406, -3193, -2562, -5664
11415, -3225, -2615, -5369
11426, -3188, -2600, -5206
11436, -3126, -2526, -5177
11446, -3024, -2471, -5308
11456, -2807, -2473, -5599
11467, -2580, -2432, -5906
11476, -2427, -2340, -6029
11485, -2354, -2220, -5917
11496, -2364, -2116, -5637
11505, -2388, -2117, -5351
11516, -2384, -2180, -5176
11526, -2375, -2200, -5103
11535, -2327, -2154, -5114
11546, -2243, -2097, -5170
11555, -2194, -2083, -5176
11566, -2197, -2070, -5138
11575, -2199, -2064, -5135
11586, -2181, -2056, -5138
11596, -2186, -2010, -5087
11607, -2242, -1999, -4985
11616, -2303, -2062, -4870
11625, -2314, -2222, -4814
11636, -2307, -2426, -4800
11645, -2310, -2618, -4808
11656, -2332, -2738, -4785
11666, -2360, -2776, -4726
11676, -2371, -2741, -4669
11686, -2323, -2623, -4722
11695, -2232, -2489, -4808
11706, -2152, -2406, -4871
11715, -2079, -2363, -4905
11726, -2063, -2334, -4895
11735, -2091, -2379, -4847
11745, -2069, -2487, -4822
11756, -2049, -2556, -4842
11765, -2016, -2594, -4941
11776, -1966, -2673, -5050
11785, -1898, -2749, -5126
11796, -1868, -2773, -5165
11805, -1880, -2755, -5179
11816, -1903, -2690, -5180
11826, -1909, -2594, -5148
11835, -1968, -2449, -5078
11846, -2033, -2293, -4974
11855, -2067, -2180, -4880
11866, -2081, -2089, -4818
11875, -2109, -1953, -4793
11885, -2180, -1773, -4758
11896, -2240, -1632, -4699
11905, -2276, -1627, -4638
11916, -2263, -1760, -4622
11925, -2230, -1897, -4665
11936, -2181, -1971, -4760
11945, -2123, -2003, -4840
11955, -2060, -2018, -4874
11966, -2024, -2007, -4850
11975, -2054, -1996, -4790
11986, -2105, -2056, -4699
11995, -2169, -2141, -4582
12006, -2242, -2185, -4465
12015, -2252, -2169, -4384
12025, -2256, -2101, -4358
12036, -2224, -2046, -4406
12045, -2190, -2053, -4477
12056, -2207, -2140, -4509
12065, -2233, -2307, -4508
12075, -2309, -2494, -4465
12086, -2363, -2732, -4424
12095, -2402, -2936, -4383
12105, -2472, -2974, -4324
12116, -2516, -2870, -4373
12125, -2507, -2657, -4630
12135, -2481, -2343, -5005
12146, -2450, -2034, -5392
12155, -2407, -1833, -5791
12164, -2413, -1670, -6132
12176, -2537, -1502, -6361
12185, -2815, -1384, -6474
12195, -3183, -1405, -6530
12206, -3601, -1628, -6721
12215, -3904, -2105, -7317
12226, -4238, -2658, -8145
12235, -4667, -3094, -9060
12245, -5588, -3171, -9844
12256, -6886, -2929,-10360
12265, -8125, -2550,-10367
12276, -9492, -1932, -9816
12285,-10673, -1070, -8925
12295,-11240,  -288, -8657
12304,-10800,   187, -9866
12315, -9731,   586,-11595
12325, -9019,  1180,-12577
12336, -8986,  1600,-12135
12345, -9155,  1941,-10879
12354, -8965,  2390, -9445
12365, -7843,  2808, -8186
12375, -5885,  2807, -7269
12386, -4086,  2601, -6534
12395, -2929,  2148, -6006
12404, -1977,  1374, -5710
12415, -1222,   780, -4958
12424,  -752,   742, -3678
12435,  -368,   463, -2669
12445,   375,    78, -1915
12454,  1455,   264, -1091
12465,  2321,   463,  -361
12475,  2864,   436,   132
12484,  3295,  -226,   250
12495,  3548, -1395,   -48
12505,  3583, -2894,   -14
12514,  3429, -4574,  -285
12525,  3257, -5453,  -687
12535,  2970, -5524, -1116
12544,  2755, -5643, -1560
12554,  2623, -5806, -2120
12565,  2279, -5993, -3055
12575,  2092, -6481, -4230
12584,  1927, -6899, -5143
12595,  1493, -6913, -5722
12604,  1002, -6829, -6351
12614,   465, -6799, -6965
12625,  -153, -6672, -7413
12634,  -760, -6483, -7608
12645, -1271, -6280, -7577
12655, -1619, -6018, -7478
12664, -1835, -5593, -7394
12675, -2028, -5043, -7346
12684, -2285, -4432, -7242
12695, -2588, -3824, -7087
12704, -2881, -3293, -6874
12715, -3130, -2960, -6635
12725, -3319, -2844, -6410
12734, -3438, -2852, -6169
12745, -3488, -2808, -6026
12754, -3425, -2688, -6069
12765, -3300, -2466, -6232
12774, -3211, -2144, -6394
12784, -3139, -1889, -6458
12795, -3177, -1701, -6343
12804, -3275, -1580, -6157
12815, -3323, -1576, -6018
12824, -3286, -1602, -5910
12835, -3207, -1654, -5818
12845, -3148, -1732, -5704
12854, -3056, -1862, -5613
12865, -2922, -2012, -5627
12874, -2833, -2006, -5717
12885, -2802, -1884, -5836
12895, -2853, -1720, -5879
12904, -2945, -1537, -5862
12915, -3024, -1418, -5855
12924, -3092, -1386, -5831
12935, -3127, -1442, -5751
12944, -3155, -1491, -5709
12954, -3188, -1508, -5781
12965, -3168, -1529, -5939
12974, -3142, -1552, -6093
12985, -3107, -1629, -6180
12994, -3057, -1663, -6217
13004, -2995, -1556, -6242
13014, -2960, -1341, -6290
13024, -2995, -1127, -6231
13035, -3095, -1022, -6074
13044, -3175, -1096, -5939
13055, -3209, -1293, -5854
13064, -3240, -1546, -5802
13074, -3238, -1800, -5792
13085, -3218, -1999, -5809
13094, -3195, -2129, -5820
13105, -3219, -2165, -5810
13114, -3248, -2129, -5814
13124, -3237, -2101, -5785
13135, -3221, -2069, -5736
13144, -3179, -2030, -5744
13155, -3120, -1969, -5796
13164, -3067, -1904, -5816
13173, -3018, -1847, -5810
13184, -3004, -1842, -5778
13194, -3013, -1896, -5679
13205, -3036, -1969, -5537
13214, -3045, -2015, -5418
13225, -3031, -2001, -5360
13234, -3004, -1981, -5416
13243, -2953, -1929, -5563
13254, -2978, -1839, -5663
13264, -3044, -1751, -5698
13275, -3101, -1703, -5696
13284, -3119, -1749, -5689
13293, -3084, -1795, -5692
13304, -3039, -1788, -5714
13314, -2999, -1746, -5742
13325, -2923, -1754, -5829
13334, -2836, -1826, -5963
13343, -2796, -1854, -6111
13354, -2805, -1831, -6261
13364, -2839, -1797, -6345
13375, -2928, -1778, -6326
13384, -3040, -1872, -6197
13393, -3126, -2073, -5983
13404, -3173, -2266, -5793
13413, -3195, -2354, -5648
13424, -3218, -2319, -5581
13434, -3177, -2256, -5616
13445, -3086, -2146, -5723
13454, -3014, -1939, -5895
13463, -2969, -1659, -6076
13474, -2962, -1427, -6179
13483, -2933, -1311, -6196
13494, -2896, -1308, -6146
13504, -2905, -1390, -6022
13513, -2914, -1540, -5879
13524, -2922, -1717, -5759
13533, -2900, -1894, -5706
13544, -2862, -2026, -5683
13553, -2841, -2057, -5669
13564, -2829, -2020, -5701
13574, -2798, -1981, -5751
13583, -2775, -1915, -5783
13594, -2763, -1869, -5842
13603, -2777, -1833, -5928
13614, -2825, -1772, -6005
13624, -2855, -1722, -6082
13633, -2887, -1689, -6146
13644, -2921, -1685, -6215
13653, -2922, -1703, -6279
13664, -2921, -1703, -6326
13673, -2916, -1698, -6370
13684, -2887, -1713, -6405
13694, -2864, -1716, -6424
13703, -2863, -1705, -6411
13714, -2880, -1683, -6355
13723, -2909, -1674, -6302
13734, -2936, -1685, -6243
13743, -2937, -1712, -6192
13753, -2930, -1754, -6136
13764, -2933, -1825, -6073
13773, -2951, -1892, -5979
13784, -2991, -1940, -5855
13793, -3018, -1973, -5754
13804, -3056, -1971, -5684
13813, -3081, -1939, -5631
13823, -3070, -1911, -5652
13834, -3016, -1893, -5746
13843, -2973, -1877, -5868
13854, -2970, -1824, -6004
13863, -2984, -1785, -6115
13873, -2996, -1771, -6178
13884, -3003, -1775, -6194
13893, -3029, -1794, -6169
13904, -3069, -1803, -6072
13914, -3083, -1800, -5991
13923, -3051, -1805, -5964
13934, -3004, -1834, -5990
13944, -2970, -1863, -6023
13953, -2938, -1902, -6046
13964, -2898, -1934, -6090
13973, -2880, -1922, -6122
13984, -2887, -1888, -6113
13993, -2898, -1849, -6086
14003, -2897, -1846, -6058
14014, -2883, -1862, -6055
14023, -2853, -1899, -6089
14034, -2827, -1927, -6125
14043, -2837, -1912, -6161
14053, -2858, -1846, -6176
14064, -2865, -1770, -6174
14073, -2867, -1710, -6170
14084, -2858, -1660, -6180
14093, -2860, -1653, -6153
14103, -2858, -1677, -6144
14114, -2828, -1721, -6164
14123, -2801, -1768, -6192
14134, -2803, -1796, -6187
14143, -2802, -1791, -6175
14152, -2812, -1753, -6152
14163, -2832, -1694, -6133
14173, -2806, -1670, -6147
14183, -2782, -1660, -6173
14193, -2780, -1663, -6202
14204, -2752, -1696, -6210
14213, -2770, -1691, -6170
14222, -2803, -1676, -6106
14233, -2811, -1686, -6058
14243, -2813, -1733, -6012
14254, -2831, -1797, -5918
14263, -2858, -1868, -5824
14272, -2865, -1917, -5737
14283, -2866, -1915, -5631
14292, -2870, -1908, -5619
14303, -2841, -1912, -5674
14313, -2828, -1959, -5736
14324, -2850, -1999, -5760
14333, -2897, -2056, -5771
14342, -2976, -2147, -5775
14353, -3033, -2265, -5836
14362, -3078, -2375, -5864
14373, -3188, -2441, -5821
14383, -3334, -2501, -5719
14394, -3468, -2582, -5577
14403, -3602, -2634, -5485
14412, -3754, -2680, -5411
14423, -3883, -2797, -5313
14432, -3959, -2873, -5274
14443, -4002, -2870, -5310
14453, -4066, -2870, -5350
14462, -4193, -2804, -5363
14473, -4352, -2683, -5319
14482, -4474, -2604, -5338
14493, -4525, -2576, -5362
14502, -4556, -2599, -5315
14513, -4556, -2656, -5334
14523, -4518, -2674, -5415
14532, -4461, -2642, -5523
14543, -4380, -2541, -5680
14552, -4256, -2424, -5843
14563, -4096, -2296, -6074
14572, -3936, -2056, -6311
14583, -3790, -1777, -6473
14593, -3644, -1517, -6597
14602, -3473, -1317, -6692
14613, -3265, -1185, -6775
14622, -3083, -1096, -6826
14633, -2951, -1051, -6773
14642, -2834, -1055, -6701
14652, -2701, -1063, -6648
14663, -2545, -1042, -6593
14672, -2367,  -978, -6546
14683, -2096,  -892, -6486
14692, -1727,  -807, -6459
14703, -1273,  -765, -6478
14712,  -708,  -760, -6539
14722,    73,  -806, -6617
14733,   945,  -806, -6749
14742,  1934,  -788, -6978
14753,  2980,  -781, -7339
14762,  3871,  -808, -7856
14773,  4721,  -993, -8554
14782,  5629, -1331, -9370
14792,  6565, -1692,-10275
14803,  7615, -1929,-11122
14812,  8680, -2061,-11873
14823,  9315, -1907,-12500
14832,  9327, -1403,-12845
14843,  8698,  -656,-12826
14853,  7856,  -135,-12670
14862,  7071,   -42,-12339
14873,  5965,  -319,-12081
14882,  4693, -1200,-12028
14893,  3309, -2527,-12160
14902,  1692, -3708,-12250
14912,  -500, -5118,-10825
14922, -1862, -6123,-11144
14932, -3516, -4872,-11138
14943, -5485, -2273,-10172
14952, -7239,    44, -8758
14963, -8366,  1187, -7447
14972, -8975,  1120, -6582
14981, -9404,   601, -6156
14992, -9678,    32, -6022
15002, -9576,  -827, -6019
15013, -9351, -1527, -5882
15022, -9328, -1706, -5625
15033, -9335, -1698, -5250
15042, -8996, -1788, -5155
15051, -8458, -1663, -5210
15062, -7877, -1363, -5186
15072, -7169, -1064, -5043
15083, -6449,  -858, -4896
15092, -5810,  -785, -4798
15103, -5273,  -856, -4760
15112, -4851, -1048, -4759
15121, -4579, -1248, -4690
15132, -4361, -1483, -4682
15142, -4165, -1663, -4815
15153, -3990, -1750, -4896
15162, -3799, -1843, -4983
15171, -3650, -1946, -5066
15182, -3558, -2086, -5085
15192, -3494, -2305, -5048
15203, -3441, -2516, -4949
15212, -3340, -2660, -4853
15221, -3254, -2618, -4772
15232, -3142, -2447, -4744
15241, -2961, -2218, -4840
15252, -2786, -1991, -4972
15262, -2637, -1907, -5106
15271, -2554, -1918, -5152
15282, -2529, -1953, -5100
15291, -2492, -1999, -5030
15302, -2396, -2066, -5006
15312, -2240, -2148, -5031
15323, -2104, -2200, -5093
15332, -2017, -2187, -5129
15341, -1983, -2126, -5142
15352, -1923, -2106, -5178
15361, -1880, -2104, -5207
15372, -1826, -2136, -5231
15382, -1738, -2165, -5248
15393, -1655, -2151, -5289
15402, -1583, -2081, -5345
15411, -1533, -1966, -5410
15422, -1512, -1843, -5432
15431, -1492, -1735, -5376
15442, -1481, -1691, -5271
15452, -1448, -1671, -5160
15462, -1423, -1636, -5044
15472, -1406, -1598, -4944
15481, -1371, -1561, -4912
15492, -1322, -1561, -4953
15501, -1289, -1543, -5020
15512, -1278, -1506, -5107
15522, -1298, -1507, -5215
15531, -1333, -1537, -5302
15542, -1383, -1590, -5348
15551, -1422, -1671, -5335
15562, -1432, -1828, -5316
15572, -1458, -2027, -5305
15581, -1489, -2225, -5316
15592, -1508, -2366, -5344
15601, -1538, -2377, -5391
15612, -1527, -2283, -5464
15621, -1476, -2153, -5553
15632, -1431, -1998, -5600
15642, -1415, -1855, -5577
15651, -1392, -1803, -5525
15662, -1381, -1870, -5447
15671, -1413, -2038, -5288
15682, -1462, -2275, -5112
15691, -1490, -2489, -4983
15702, -1493, -2597, -4912
15712, -1482, -2569, -4952
15721, -1429, -2461, -5069
15732, -1375, -2259, -5247
15741, -1317, -2013, -5450
15752, -1275, -1767, -5603
15761, -1269, -1567, -5662
15771, -1283, -1509, -5646
15782, -1275, -1623, -5628
15791, -1276, -1844, -5616
15802, -1319, -2061, -5591
15811, -1408, -2195, -5529
15822, -1511, -2226, -5448
15831, -1590, -2188, -5372
15841, -1631, -2127, -5293
15852, -1640, -2049, -5245
15861, -1626, -1949, -5236
15872, -1602, -1866, -5259
15881, -1588, -1809, -5295
15890, -1600, -1786, -5332
15901, -1618, -1814, -5349
15911, -1633, -1907, -5354
15922, -1649, -2007, -5311
15931, -1673, -2128, -5246
15942, -1686, -2233, -5179
15951, -1724, -2277, -5106
15960, -1791, -2257, -5041
15971, -1817, -2230, -5010
15981, -1822, -2211, -5012
15992, -1803, -2183, -5018
16001, -1764, -2156, -5043
16012, -1716, -2155, -5115
16021, -1682, -2169, -5184
16030, -1687, -2188, -5208
16041, -1728, -2171, -5196
16051, -1774, -2128, -5159
16062, -1783, -2067, -5128
16071, -1755, -2008, -5114
16082, -1711, -1945, -5126
16091, -1656, -1895, -5179
16100, -1593, -1872, -5268
16111, -1543, -1850, -5384
16121, -1536, -1819, -5426
16132, -1575, -1802, -5380
16141, -1604, -1794, -5335
16150, -1610, -1776, -5298
16161, -1643, -1741, -5250
16170, -1662, -1728, -5238
16181, -1675, -1761, -5254
16191, -1688, -1855, -5255
16202, -1682, -1976, -5256
16211, -1687, -2051, -5263
16220, -1717, -2059, -5240
16231, -1745, -2016, -5237
16240, -1757, -1956, -5246
16251, -1783, -1884, -5217
16261, -1820, -1844, -5161
16270, -1887, -1840, -5086
16281, -1953, -1889, -4997
16290, -2035, -1962, -4894
16301, -2148, -2052, -4785
16311, -2350, -2143, -4650
16320, -2575, -2222, -4501
16331, -2809, -2306, -4372
16340, -3045, -2346, -4249
16351, -3256, -2355, -4148
16361, -3443, -2356, -4037
16372, -3639, -2368, -3908
16381, -3815, -2389, -3797
16390, -3990, -2409, -3653
16401, -4167, -2436, -3474
16410, -4315, -2479, -3310
16421, -4406, -2545, -3129
16431, -4458, -2630, -3016
16441, -4467, -2684, -2986
16451, -4405, -2729, -3082
16460, -4275, -2743, -3259
16471, -4110, -2709, -3543
16480, -3879, -2666, -3917
16491, -3594, -2649, -4311
16501, -3368, -2572, -4612
16510, -3273, -2423, -4719
16521, -3186, -2308, -4663
16530, -3052, -2278, -4621
16541, -2888, -2254, -4632
16550, -2692, -2215, -4681
16561, -2442, -2172, -4825
16571, -2159, -2071, -5074
16580, -1867, -1940, -5417
16591, -1593, -1867, -5865
16600, -1400, -1826, -6308
16611, -1265, -1823, -6652
16620, -1115, -1842, -6939
16631,  -987, -1874, -7174
16641,  -895, -1840, -7296
16650,  -795, -1810, -7343
16661,  -694, -1788, -7312
16670,  -659, -1722, -7217
16681,  -677, -1671, -7106
16690,  -752, -1675, -6985
16700,  -869, -1692, -6858
16711,  -917, -1761, -6789
16720,  -927, -1823, -6780
16731, -1034, -1759, -6754
16740, -1246, -1581, -6610
16751, -1443, -1455, -6346
16760, -1584, -1445, -6008
16770, -1656, -1516, -5776
16781, -1707, -1591, -5651
16790, -1728, -1690, -5583
16801, -1719, -1806, -5501
16810, -1749, -1876, -5398
16820, -1791, -1915, -5360
16830, -1844, -1874, -5460
16840, -1898, -1770, -5676
16851, -2007, -1628, -5974
16860, -2073, -1539, -6227
16871, -2212, -1390, -6327
16880, -2371, -1209, -6283
16890, -2491, -1037, -6185
16901, -2490,  -978, -6155
16910, -2417, -1038, -6217
16921, -2385, -1188, -6342
16930, -2364, -1441, -6507
16940, -2326, -1773, -6689
16951, -2315, -2102, -6789
16960, -2368, -2344, -6753
16971, -2519, -2414, -6556
16980, -2730, -2327, -6344
16989, -2850, -2190, -6235
17000, -2803, -2044, -6284
17010, -2635, -1871, -6419
17021, -2486, -1657, -6500
17030, -2421, -1409, -6441
17039, -2387, -1259, -6296
17050, -2379, -1347, -6109
17060, -2462, -1600, -5915
17071, -2589, -1986, -5851
17080, -2343, -2808, -5960
17089, -2143, -3605, -6080
17100, -2204, -3998, -6027
17110, -2360, -3852, -5937
17121, -2449, -3564, -5780
17130, -2474, -3227, -5606
17139, -2416, -2907, -5505
17150, -2333, -2644, -5473
17159, -2252, -2428, -5438
17170, -2207, -2219, -5368
17180, -2154, -2031, -5272
17191, -2148, -1917, -5202
17200, -2150, -1885, -5193
17209, -2176, -1890, -5214
17220, -2237, -1933, -5208
17230, -2388, -2010, -5146
17240, -2631, -2193, -5051
17250, -2961, -2481, -4934
17259, -3021, -2530, -4922
17270, -2998, -2424, -4883
17279, -2963, -2354, -4896
17290, -2959, -2363, -4941
17300, -2962, -2384, -4954
17309, -2962, -2372, -4942
17320, -2954, -2388, -4966
17329, -2927, -2330, -4958
17340, -2927, -2315, -4951
17350, -2942, -2327, -4945
17360, -2955, -2318, -4925
17370, -2979, -2319, -4927
17379, -2985, -2323, -4944
17390, -2977, -2301, -4939
17399, -2971, -2311, -4954
17410, -2961, -2317, -4971
17420, -2954, -2314, -4972
17429, -2931, -2387, -5048
17440, -2881, -2397, -5140
17449, -2877, -2386, -5182
17460, -2897, -2384, -5141
17469, -2914, -2340, -5034
17480, -2928, -2309, -4929
17490, -2886, -2311, -4869
17499, -2809, -2346, -4859
17510, -2777, -2351, -4844
17519, -2809, -2354, -4818
17530, -2850, -2342, -4745
17539, -2867, -2323, -4661
17549, -2887, -2314, -4611
17560, -2966, -2325, -4593
17569, -3033, -2319, -4599
17580, -2994, -2345, -4635
17589, -2950, -2382, -4678
17600, -2930, -2395, -4700
17610, -2926, -2392, -4682
17619, -2922, -2382, -4631
17630, -2921, -2367, -4570
17639, -2928, -2374, -4528
17650, -2926, -2390, -4526
17659, -2929, -2385, -4534
17669, -2938, -2388, -4536
17680, -2947, -2377, -4526
17689, -2937, -2356, -4512
17700, -2954, -2358, -4509
17709, -2984, -2351, -4497
17719, -3010, -2357, -4507
17729, -3030, -2366, -4525
17739, -3051, -2381, -4555
17750, -3067, -2396, -4598
17759, -3070, -2402, -4644
17770, -3040, -2400, -4700
17779, -3000, -2396, -4748
17789, -2971, -2387, -4779
17800, -2936, -2387, -4813
17809, -2933, -2381, -4816
17820, -2934, -2379, -4811
17829, -2927, -2398, -4817
17840, -2884, -2438, -4863
17849, -2872, -2393, -4868
17859, -2871, -2412, -4876
17870, -2879, -2417, -4852
