time,accx,accy,accz
7, -4031,  5417,  6275
16, -4062,  5417,  6298
27, -4057,  5422,  6285
36, -4022,  5423,  6238
47, -3979,  5419,  6186
56, -3954,  5420,  6151
67, -3958,  5431,  6150
77, -3985,  5419,  6175
86, -4018,  5393,  6216
97, -4044,  5380,  6255
106, -4054,  5389,  6278
117, -4075,  5404,  6290
127, -4122,  5415,  6316
136, -4174,  5456,  6360
147, -4217,  5493,  6398
156, -4232,  5512,  6412
167, -4217,  5524,  6394
176, -4176,  5528,  6349
186, -4125,  5520,  6302
197, -4085,  5508,  6269
206, -4071,  5503,  6258
217, -4078,  5500,  6256
226, -4098,  5500,  6257
236, -4121,  5503,  6260
247, -4131,  5513,  6248
256, -4138,  5502,  6209
267, -4147,  5475,  6184
276, -4167,  5450,  6193
287, -4201,  5453,  6213
296, -4225,  5480,  6218
306, -4223,  5504,  6210
317, -4199,  5476,  6176
326, -4181,  5424,  6163
337, -4170,  5381,  6171
346, -4164,  5357,  6191
356, -4171,  5326,  6203
367, -4175,  5325,  6212
376, -4178,  5331,  6224
387, -4189,  5353,  6254
396, -4210,  5388,  6285
405, -4205,  5394,  6290
416, -4169,  5374,  6260
426, -4115,  5339,  6205
437, -4070,  5322,  6158
446, -4048,  5337,  6142
457, -4048,  5378,  6146
466, -4064,  5421,  6160
476, -4087,  5463,  6182
487, -4103,  5491,  6201
496, -4119,  5484,  6222
507, -4127,  5464,  6240
516, -4118,  5439,  6245
526, -4106,  5418,  6233
536, -4093,  5411,  6226
546, -4105,  5418,  6243
557, -4136,  5427,  6262
566, -4154,  5426,  6285
575, -4165,  5441,  6297
586, -4151,  5467,  6285
596, -4135,  5476,  6257
605, -4115,  5471,  6241
616, -4075,  5460,  6222
626, -4037,  5431,  6210
637, -3986,  5381,  6189
646, -3939,  5344,  6158
656, -3919,  5341,  6143
667, -3925,  5336,  6117
676, -3939,  5311,  6093
685, -3938,  5312,  6038
697, -3907,  5317,  6004
706, -3875,  5297,  6013
715, -3889,  5305,  6037
726, -3932,  5363,  6074
736, -3970,  5384,  6131
747, -4024,  5394,  6209
756, -4072,  5389,  6268
765, -4114,  5372,  6300
776, -4127,  5351,  6339
785, -4136,  5369,  6365
796, -4156,  5421,  6380
806, -4179,  5471,  6387
815, -4182,  5483,  6379
826, -4183,  5500,  6360
835, -4175,  5501,  6349
846, -4176,  5488,  6333
856, -4164,  5471,  6324
867, -4142,  5490,  6301
876, -4107,  5517,  6276
885, -4127,  5504,  6263
896, -4145,  5459,  6258
905, -4139,  5401,  6247
916, -4132,  5367,  6241
926, -4133,  5331,  6240
935, -4155,  5292,  6237
946, -4156,  5286,  6235
955, -4144,  5295,  6249
966, -4185,  5306,  6273
975, -4236,  5357,  6307
986, -4252,  5400,  6316
996, -4236,  5413,  6284
1005, -4189,  5426,  6234
1016, -4140,  5418,  6200
1025, -4100,  5393,  6180
1036, -4068,  5361,  6153
1046, -4051,  5321,  6156
1055, -4062,  5314,  6200
1066, -4105,  5339,  6254
1075, -4139,  5353,  6309
1086, -4128,  5349,  6317
1095, -4085,  5320,  6277
1106, -4033,  5321,  6234
1116, -3960,  5347,  6211
1125, -3854,  5381,  6222
1136, -3746,  5391,  6255
1145, -3599,  5357,  6335
1156, -3366,  5345,  6460
1166, -3058,  5388,  6595
1175, -2709,  5410,  6796
1186, -2313,  5376,  7116
1195, -1961,  5332,  7492
1206, -1752,  5298,  7938
1215, -1586,  5430,  8361
1225, -1266,  5635,  8642
1236,  -741,  5664,  8715
1245,  -105,  5470,  8556
1256,   516,  5169,  8260
1265,  1090,  4966,  7839
1275,  1585,  4958,  7321
1286,  1971,  5117,  6878
1295,  2142,  5445,  6582
1306,  2027,  5922,  6325
1315,  1591,  6483,  6191
1326,   998,  7033,  6155
1335,   307,  7229,  6048
1345,  -466,  7043,  5875
1356, -1263,  6624,  5557
1365, -1981,  6055,  4949
1376, -2613,  5493,  4180
1385, -3234,  5086,  3342
1394, -4108,  4973,  2808
1405, -5028,  5490,  2491
1415, -6639,  5695,  2352
1426, -7689,  5651,  2718
1435, -9095,  4970,  3275
1446,-10249,  3792,  4155
1455,-11181,  2573,  5171
1465,-11752,  1677,  6059
1476,-11887,  1300,  6562
1485,-11524,  1352,  6498
1496,-10791,  1637,  6084
1505, -9888,  2167,  5544
1514, -9072,  2945,  5006
1525, -8470,  3755,  4699
1535, -8231,  4549,  4755
1546, -8115,  5241,  5010
1555, -7749,  5617,  5183
1564, -7461,  5825,  5345
1575, -7042,  5921,  5479
1584, -6631,  5942,  5559
1595, -6252,  6078,  5576
1605, -5966,  6346,  5655
1616, -5814,  6699,  5933
1625, -5813,  7018,  6289
1635, -5885,  7176,  6624
1646, -5856,  7169,  6866
1655, -5763,  6963,  7002
1664, -5665,  6618,  7038
1675, -5546,  6236,  7059
1685, -5449,  5829,  7030
1696, -5335,  5448,  6937
1705, -5234,  5131,  6872
1714, -5141,  4896,  6813
1725, -5049,  4743,  6707
1735, -4918,  4605,  6576
1745, -4778,  4508,  6457
1755, -4699,  4484,  6375
1764, -4648,  4487,  6323
1775, -4630,  4508,  6292
1784, -4624,  4549,  6303
1795, -4626,  4647,  6325
1805, -4639,  4827,  6328
1816, -4664,  5069,  6283
1825, -4659,  5274,  6196
1834, -4590,  5354,  6092
1845, -4519,  5357,  6024
1854, -4444,  5328,  6043
1865, -4371,  5268,  6048
1875, -4298,  5188,  6020
1884, -4227,  5114,  5968
1895, -4167,  5045,  5926
1904, -4124,  4940,  5890
1915, -4090,  4784,  5866
1925, -4065,  4662,  5867
1934, -4078,  4614,  5868
1945, -4092,  4602,  5854
1954, -4083,  4579,  5821
1965, -4040,  4554,  5770
1974, -3971,  4505,  5739
1985, -3937,  4513,  5752
1995, -3982,  4578,  5824
2004, -4106,  4680,  5952
2015, -4248,  4767,  6088
2024, -4377,  4826,  6216
2035, -4485,  4894,  6299
2044, -4566,  4949,  6346
2055, -4619,  4941,  6366
2065, -4631,  4843,  6368
2074, -4624,  4758,  6376
2085, -4640,  4751,  6392
2094, -4647,  4784,  6396
2105, -4630,  4822,  6358
2115, -4587,  4860,  6299
2124, -4543,  4911,  6245
2135, -4523,  4950,  6215
2144, -4526,  4995,  6216
2155, -4557,  5052,  6263
2164, -4604,  5065,  6311
2174, -4632,  5028,  6357
2185, -4662,  4914,  6423
2194, -4655,  4821,  6455
2205, -4614,  4787,  6408
2214, -4535,  4809,  6317
2224, -4423,  4835,  6217
2235, -4323,  4962,  6070
2244, -4238,  5069,  5908
2255, -4115,  5044,  5907
2264, -4076,  4948,  6025
2274, -4103,  4891,  6165
2285, -4191,  4996,  6246
2294, -4138,  4960,  6316
2305, -4034,  4870,  6407
2314, -3944,  4753,  6437
2324, -3862,  4678,  6416
2335, -3755,  4577,  6357
2344, -3607,  4471,  6305
2355, -3534,  4325,  6246
2364, -3653,  4127,  6281
2373, -3843,  3830,  6449
2384, -4032,  3627,  6667
2394, -4313,  3499,  6743
2405, -4474,  3520,  6574
2414, -4348,  3598,  6242
2423, -4074,  3497,  5772
2434, -3740,  3457,  5240
2444, -3535,  3530,  4712
2455, -3626,  3659,  4450
2464, -3906,  3690,  4742
2475, -4282,  3958,  5307
2484, -4915,  4525,  6002
2494, -5434,  5177,  6597
2505, -5468,  5936,  6749
2514, -5513,  6486,  6515
2525, -5142,  6540,  6071
2534, -4698,  6167,  5710
2543, -4443,  5699,  5443
2554, -4258,  5290,  5480
2564, -4136,  5051,  5948
2575, -4180,  4986,  6365
2584, -4453,  5231,  6696
2593, -4657,  5472,  6877
2604, -4721,  5355,  6843
2614, -4608,  4965,  6668
2625, -4263,  4574,  6373
2634, -3859,  4231,  6098
2643, -3335,  3921,  5941
2654, -2721,  3838,  5900
2663, -2269,  3801,  5961
2674, -2043,  3851,  6062
2684, -2118,  3878,  6146
2695, -2418,  3839,  6127
2704, -2724,  3742,  6041
2713, -2885,  3803,  5883
2724, -3057,  4003,  5789
2734, -3168,  4137,  5733
2745, -3228,  4176,  5711
2754, -3242,  4256,  5804
2763, -3246,  4203,  6062
2774, -3317,  4385,  6340
2783, -3484,  4638,  6564
2794, -3721,  4699,  6805
2804, -4109,  4635,  6964
2813, -4264,  4640,  7004
2824, -4460,  4691,  6874
2833, -4623,  4601,  6704
2844, -4674,  4601,  6508
2853, -4453,  4720,  6331
2864, -4323,  4730,  6290
2874, -4523,  4591,  6267
2883, -4641,  4460,  6230
2894, -4709,  4494,  6164
2903, -4855,  4465,  6045
2914, -4957,  4412,  5949
2924, -5080,  4437,  5961
2933, -5305,  4572,  6109
2944, -5525,  4784,  6263
2953, -5613,  4960,  6419
2964, -5589,  5084,  6475
2973, -5580,  5027,  6552
2984, -5713,  4811,  6590
2994, -5806,  4681,  6516
3003, -5797,  4600,  6535
3014, -5540,  4628,  6558
3023, -5015,  4804,  6540
3034, -4295,  5038,  6461
3043, -3605,  5374,  6342
3054, -3045,  5642,  6186
3064, -2699,  5777,  5983
3073, -2462,  5904,  5776
3084, -2307,  6027,  5611
3093, -2332,  6077,  5555
3104, -2598,  6008,  5632
3113, -2863,  5897,  5779
3123, -3033,  5836,  5955
3134, -3175,  5788,  6156
3143, -3178,  5791,  6305
3154, -3095,  5899,  6320
3163, -3105,  6146,  6257
3173, -3055,  6385,  6253
3184, -3039,  6504,  6258
3193, -3073,  6376,  6216
3204, -3368,  5943,  6201
3213, -3598,  5675,  6184
3223, -3558,  5608,  6076
3234, -3526,  5694,  5970
3243, -3524,  5803,  5894
3254, -3479,  5898,  5818
3263, -3548,  5945,  5701
3272, -3766,  5911,  5631
3283, -3941,  5846,  5557
3293, -3905,  5795,  5569
3304, -3754,  5856,  5661
3313, -3521,  5912,  5762
3324, -3306,  5935,  5840
3333, -3178,  5850,  5925
3343, -3207,  5793,  6039
3354, -3405,  5902,  6202
3363, -3703,  6075,  6397
3374, -3959,  6208,  6557
3383, -4013,  6324,  6644
3393, -3929,  6300,  6719
3404, -3857,  6127,  6762
3413, -3860,  5961,  6734
3424, -3911,  5901,  6640
3433, -3916,  5918,  6502
3442, -3840,  5925,  6358
3453, -3716,  5900,  6238
3463, -3686,  5892,  6174
3474, -3796,  5887,  6177
3483, -3815,  5912,  6241
3494, -3742,  5979,  6335
3503, -3654,  6065,  6450
3513, -3493,  6057,  6574
3523, -3220,  6051,  6623
3533, -3120,  5950,  6648
3544, -3073,  5902,  6622
3553, -2963,  5895,  6564
3562, -2677,  5935,  6590
3573, -2206,  6054,  6685
3583, -1661,  6231,  6864
3594, -1104,  6384,  7124
3603,  -624,  6475,  7372
3614,  -147,  6413,  7539
3623,   380,  6226,  7556
3632,   971,  5955,  7429
3643,  1495,  5749,  7207
3653,  1828,  5729,  6958
3664,  1956,  5823,  6676
3673,  1902,  5994,  6346
3682,  1683,  6150,  6048
3693,  1424,  6331,  5634
3703,  1119,  6180,  5406
3713,   797,  6007,  5266
3723,   400,  6295,  5086
3732,    90,  6485,  5076
3743,  -582,  6478,  5175
3752, -1284,  6486,  5309
3763, -1996,  6690,  5286
3773, -2545,  6598,  5188
3784, -3100,  6152,  5138
3793, -3726,  5700,  5231
3802, -4246,  5492,  5458
3813, -4893,  5666,  5901
3822, -4342,  5434,  6397
3833, -5176,  5199,  6765
3843, -6097,  5997,  6606
3854, -7082,  6597,  6316
3863, -7931,  6935,  5841
3872, -8169,  6966,  5350
3883, -7723,  6727,  4952
3892, -6981,  6296,  4750
3903, -6354,  5735,  4744
3913, -5853,  5130,  4855
3922, -5416,  4523,  5111
3933, -5085,  4189,  5552
3942, -4901,  4117,  6108
3953, -4887,  4338,  6733
3963, -4962,  4667,  7298
3972, -4990,  4968,  7705
3983, -4881,  5138,  7890
3992, -4625,  5211,  7830
4003, -4362,  5194,  7592
4012, -4070,  5104,  7312
4023, -3731,  5055,  7091
4033, -3412,  4995,  6940
4042, -3159,  4988,  6857
4053, -3020,  5134,  6825
4062, -3089,  5414,  6793
4073, -3304,  5776,  6746
4082, -3603,  6088,  6692
4092, -3915,  6260,  6599
4103, -4088,  6271,  6425
4112, -4123,  6247,  6225
4123, -4018,  6157,  6075
4132, -3902,  6031,  6039
4143, -3825,  5966,  6112
4152, -3798,  5985,  6225
4162, -3733,  5888,  6303
4173, -3626,  5772,  6351
4182, -3548,  5694,  6356
4193, -3469,  5720,  6348
4202, -3412,  5814,  6341
4213, -3384,  5883,  6366
4222, -3325,  5812,  6389
4232, -3291,  5747,  6401
4243, -3303,  5786,  6408
4252, -3298,  5925,  6407
4263, -3304,  6100,  6448
4272, -3253,  6200,  6499
4282, -3074,  6168,  6502
4293, -2879,  5996,  6488
4302, -2761,  5794,  6440
4313, -2690,  5679,  6371
4322, -2688,  5652,  6295
4333, -2772,  5669,  6240
4342, -2878,  5755,  6200
4352, -2950,  5847,  6129
4363, -3004,  5889,  6059
4372, -3055,  5897,  6009
4383, -3121,  5927,  5967
4392, -3160,  5987,  5922
4401, -3145,  6045,  5898
4412, -3080,  6008,  5902
4422, -3020,  5900,  5938
4433, -2999,  5838,  5980
4442, -3005,  5830,  6006
4451, -3035,  5870,  6011
4462, -3111,  5907,  6026
4472, -3178,  5924,  6073
4483, -3200,  5910,  6124
4492, -3219,  5859,  6156
4503, -3243,  5818,  6145
4512, -3258,  5830,  6135
4521, -3254,  5858,  6150
4532, -3251,  5844,  6175
4542, -3264,  5794,  6226
4553, -3273,  5740,  6269
4562, -3255,  5693,  6276
4571, -3249,  5661,  6268
4582, -3523,  5731,  6265
4592, -4232,  6316,  6278
4603, -2917,  5974,  6224
4612, -3791,  6069,  6259
4621, -3307,  5824,  6181
4632, -2854,  5391,  6122
4642, -3129,  5382,  6101
4653, -3269,  5583,  6177
4662, -3324,  5685,  6262
4671, -3493,  5771,  6318
4683, -3535,  5760,  6335
4692, -3493,  5760,  6308
4701, -3475,  5781,  6281
4712, -3362,  5732,  6270
4722, -3285,  5681,  6277
4733, -3293,  5744,  6191
4742, -3374,  5885,  6009
4751, -3306,  5928,  5960
4762, -3526,  5796,  6357
4772, -3540,  5918,  6632
4781, -3527,  5802,  6752
4792, -3328,  5637,  6634
4801, -3198,  5571,  6531
4812, -3157,  5457,  6426
4822, -3057,  5329,  6262
4831, -3045,  5290,  6129
4842, -3049,  5373,  6102
4851, -3052,  5487,  6228
4862, -3076,  5687,  6449
4871, -3113,  5795,  6689
4882, -3116,  5855,  6847
4892, -3124,  5908,  6905
4901, -3130,  5991,  6816
4912, -3010,  6072,  6611
4921, -2932,  5936,  6364
4932, -2795,  6165,  5970
4942, -2916,  6447,  5865
4951, -3416,  6169,  6172
4962, -3474,  5826,  6555
4971, -3249,  5481,  6725
4982, -2832,  5304,  6774
4991, -2564,  5130,  6735
5002, -2477,  5026,  6659
5012, -2268,  5031,  6445
5021, -2057,  4994,  6073
5032, -2087,  4920,  5749
5041, -2337,  4664,  5516
5052, -2814,  4217,  5392
5061, -3303,  3620,  5532
5071, -3769,  3040,  5896
5082, -4068,  2952,  6309
5091, -3941,  3336,  6668
5102, -3656,  3944,  6855
5111, -3478,  4558,  6895
5122, -3248,  5174,  6705
5131, -2979,  5674,  6408
5141, -3043,  5662,  6369
5152, -3280,  5192,  6532
5161, -3317,  4635,  6633
5172, -3350,  4049,  6596
5181, -2715,  3773,  6310
5192, -1647,  3712,  5884
5201, -1997,  3838,  5948
5211, -2018,  3885,  5790
5222, -2416,  4052,  5632
5231, -3045,  4171,  5580
5242, -4225,  4396,  5642
5251, -4329,  4107,  5661
5262, -4608,  3983,  5968
5271, -4659,  4356,  6152
5281, -4923,  4551,  6064
5292, -4746,  4607,  5976
5301, -3739,  4537,  5883
5312, -2633,  4411,  5787
5321, -2093,  4263,  5688
5330, -2029,  4140,  5631
5341, -2127,  4161,  5651
5351, -2352,  4270,  5755
5362, -2331,  4407,  5676
5371, -2137,  4404,  5451
5382, -1848,  4245,  5332
5391, -1849,  4048,  5404
5400, -2211,  4143,  5555
5411, -2584,  4341,  5812
5421, -2863,  4200,  6250
5432, -2954,  3916,  6663
5441, -2963,  3848,  6869
5452, -3012,  3923,  6981
5461, -2933,  4096,  6971
5470, -2795,  4274,  6835
5481, -2709,  4478,  6602
5491, -2588,  4692,  6325
5502, -2446,  4792,  6114
5511, -2261,  4779,  5962
5520, -2104,  4848,  5826
5531, -1991,  4952,  5733
5541, -2129,  4975,  5643
5552, -2398,  4994,  5520
5561, -2590,  4895,  5573
5570, -2573,  4936,  5687
5581, -2435,  5065,  5819
5591, -2386,  5074,  5987
5602, -2410,  5087,  6174
5611, -2502,  5145,  6326
5620, -2562,  5120,  6456
5631, -2608,  5115,  6529
5640, -2669,  5030,  6614
5651, -2750,  4999,  6690
5661, -2873,  5020,  6739
5672, -2942,  4951,  6788
5681, -2934,  4926,  6798
5690, -3057,  4852,  6679
5701, -3333,  4899,  6277
5710, -2987,  4585,  5730
5721, -2654,  4372,  5556
5731, -2654,  4368,  5854
5742, -2852,  4489,  6307
5751, -3051,  4509,  6665
5760, -2888,  4517,  6744
5771, -2537,  4547,  6567
5780, -2571,  4616,  6227
5791, -2553,  4276,  6246
5801, -2551,  4300,  6372
5810, -2514,  4399,  6506
5821, -2314,  4466,  6562
5830, -2017,  4444,  6512
5841, -1585,  4481,  6371
5850, -1054,  4457,  6188
5861,  -419,  4472,  5938
5871,   280,  4496,  5744
5880,  1020,  4434,  5572
5891,  1772,  4306,  5580
5900,  2443,  4309,  5702
5911,  3053,  4439,  5831
5921,  3478,  4625,  5980
5930,  3717,  4846,  6054
5941,  3625,  5125,  6010
5950,  3265,  5251,  5739
5961,  2635,  5246,  5270
5970,  1876,  5295,  4592
5981,   976,  5292,  3839
5990,  -174,  5092,  3333
6000, -1658,  4722,  3405
6011, -3331,  4323,  3877
6020, -4769,  4062,  4472
6031, -5979,  3923,  5042
6040, -6966,  3797,  5500
6051, -7885,  3681,  5862
6061, -8576,  3545,  6127
6070, -8923,  3477,  6271
6081, -8966,  3544,  6299
6090, -8951,  3639,  6270
6101, -8846,  3735,  6195
6110, -8575,  3715,  6280
6120, -8220,  3689,  6480
6131, -7802,  3716,  6722
6140, -7316,  3811,  6892
6151, -6881,  3949,  7026
6160, -6449,  4067,  7124
6171, -6017,  4147,  7149
6180, -5595,  4208,  7110
6190, -5271,  4382,  7008
6201, -5041,  4442,  6978
6210, -4915,  4528,  6998
6221, -4858,  4637,  6999
6230, -4792,  4678,  7016
6239, -4729,  4772,  7045
6250, -4644,  4911,  7043
6260, -4567,  5004,  7096
6271, -4514,  5052,  7144
6280, -4483,  5079,  7129
6291, -4490,  5038,  7023
6300, -4430,  4891,  6786
6309, -4265,  4780,  6476
6321, -4099,  4677,  6189
6330, -4014,  4573,  6045
6339, -3947,  4611,  5970
6350, -3782,  4645,  5946
6360, -3676,  4693,  5978
6370, -3703,  4745,  6009
6380, -3786,  4731,  6095
6391, -3891,  4694,  6189
6400, -3967,  4688,  6263
6411, -4018,  4698,  6328
6420, -4028,  4668,  6343
6430, -3993,  4653,  6302
6441, -3923,  4619,  6221
6450, -3850,  4604,  6117
6461, -3760,  4590,  6024
6470, -3673,  4583,  5967
6480, -3601,  4586,  5929
6490, -3549,  4590,  5948
6500, -3528,  4597,  6032
6511, -3542,  4613,  6143
6520, -3608,  4614,  6266
6529, -3690,  4605,  6373
6540, -3725,  4625,  6409
6549, -3771,  4651,  6365
6560, -3801,  4620,  6305
6570, -3806,  4585,  6273
6579, -3791,  4553,  6272
6591, -3757,  4547,  6315
6600, -3690,  4556,  6361
6609, -3563,  4596,  6376
6621, -3436,  4632,  6374
6630, -3395,  4610,  6350
6639, -3369,  4543,  6327
6650, -3348,  4492,  6302
6660, -3328,  4457,  6267
6669, -3303,  4440,  6216
6680, -3304,  4423,  6195
6690, -3354,  4428,  6179
6699, -3477,  4447,  6164
6710, -3623,  4439,  6151
6720, -3650,  4416,  6147
6729, -3517,  4445,  6136
6741, -3337,  4493,  6131
6750, -3200,  4540,  6135
6760, -3152,  4594,  6166
6771, -3189,  4620,  6207
6780, -3257,  4633,  6239
6790, -3319,  4650,  6267
6800, -3443,  4672,  6283
6810, -3628,  4665,  6296
6820, -3782,  4652,  6278
6829, -3932,  4664,  6242
6840, -4006,  4662,  6234
6850, -3951,  4671,  6234
6860, -3812,  4710,  6256
6870, -3639,  4765,  6329
6880, -3517,  4761,  6382
6889, -3528,  4677,  6348
6900, -3577,  4654,  6297
6910, -3635,  4634,  6242
6919, -3670,  4636,  6168
6930, -3691,  4647,  6086
6940, -3688,  4655,  5994
6949, -3729,  4682,  5860
6959, -3873,  4705,  5785
6970, -4032,  4793,  5790
6980, -4099,  4894,  5807
6989, -3937,  4913,  5873
7000, -3653,  4926,  5999
7010, -3439,  5005,  6173
7019, -3358,  5112,  6320
7029, -3355,  5139,  6481
7040, -3443,  5120,  6549
7049, -3630,  5111,  6512
7059, -3793,  5033,  6430
7070, -3826,  5048,  6220
7079, -3788,  5105,  6063
7089, -3803,  4928,  6034
7100, -3776,  4830,  6094
7109, -3646,  4797,  6176
7119, -3566,  4810,  6251
7130, -3656,  4883,  6352
7139, -3777,  4908,  6399
7149, -3853,  4955,  6399
7160, -3894,  4955,  6401
7169, -3885,  4902,  6441
7179, -3803,  4830,  6476
7189, -3688,  4758,  6527
7200, -3571,  4716,  6539
7209, -3473,  4757,  6533
7220, -3426,  4739,  6548
7230, -3479,  4674,  6610
7239, -3518,  4653,  6636
7250, -3540,  4663,  6611
7259, -3572,  4599,  6628
7269, -3566,  4611,  6599
7280, -3470,  4627,  6602
7289, -3344,  4563,  6703
7299, -3184,  4489,  6688
7310, -2732,  4522,  6360
7319, -2343,  4442,  6028
7329, -2050,  4484,  5926
7340, -1979,  4659,  5898
7350, -2044,  4795,  5964
7359, -2337,  5227,  5988
7369, -2702,  5718,  5879
7380, -2820,  5938,  5842
7389, -2755,  5742,  5844
7399, -2869,  5291,  5794
7409, -3038,  4740,  5347
7419, -2921,  4315,  5086
7429, -2979,  4138,  5207
7440, -3144,  4238,  5524
7449, -3218,  4471,  5886
7459, -3230,  4680,  6311
7470, -2771,  4871,  6823
7479, -1812,  5103,  7056
7489,  -947,  5159,  6891
7498,  -883,  4905,  6422
7509, -1466,  4653,  6055
7519, -2309,  4626,  5950
7528, -3017,  4816,  5952
7539, -3469,  5054,  5969
7549, -3727,  5208,  6080
7558, -3749,  5268,  6230
7569, -3628,  5367,  6244
7579, -3534,  5606,  6191
7588, -3541,  5897,  6172
7599, -3710,  6212,  6196
7609, -4021,  6425,  6298
7619, -4348,  6479,  6460
7628, -4571,  6381,  6588
7639, -4677,  6170,  6614
7649, -4583,  5890,  6590
7659, -4373,  5668,  6494
7668, -4193,  5539,  6359
7679, -4113,  5527,  6195
7689, -4146,  5598,  5994
7699, -4195,  5681,  5863
7709, -4266,  5714,  5835
7719, -4307,  5710,  5879
7728, -4308,  5620,  6003
7738, -4330,  5524,  6122
7749, -4340,  5398,  6200
7759, -4235,  5240,  6255
7768, -4086,  5098,  6283
7779, -3940,  5049,  6285
7789, -3889,  5191,  6228
7798, -3910,  5407,  6115
7809, -3929,  5460,  5989
7819, -3839,  5312,  5885
7828, -3690,  5127,  5809
7839, -3560,  5070,  5822
7849, -3499,  5097,  5878
7858, -3526,  5088,  6011
7868, -3637,  5044,  6177
7879, -3675,  5078,  6358
7888, -3686,  5145,  6507
7898, -3757,  5183,  6641
7909, -3791,  5190,  6626
7919, -3794,  5097,  6479
7928, -3679,  4969,  6408
7939, -3543,  4976,  6455
7949, -3527,  5203,  6499
7958, -3536,  5443,  6411
7968, -3286,  5384,  5897
7979, -3003,  5381,  5536
7989, -2961,  5425,  5429
7998, -3213,  5490,  5443
8008, -3571,  5445,  5483
8019, -3923,  5330,  5550
8028, -4174,  5216,  5691
8038, -4294,  5212,  5922
8049, -4459,  5225,  6180
8059, -4581,  5197,  6402
8068, -4541,  5284,  6631
8078, -4428,  5463,  6828
8089, -4325,  5538,  6959
8098, -4207,  5526,  7037
8108, -4048,  5535,  7026
8118, -3757,  5589,  6924
8129, -3335,  5586,  6747
8138, -2804,  5545,  6621
8148, -2114,  5436,  6661
8158, -1358,  5235,  6899
8169,  -516,  5045,  7296
8178,   371,  4903,  7743
8188,  1252,  4939,  8170
8199,  2014,  5068,  8534
8208,  2557,  5058,  8795
8218,  2807,  4866,  8767
8229,  2714,  4554,  8431
8238,  2536,  4196,  7720
8247,  2265,  3710,  6631
8259,  1904,  3234,  5440
8268,  1282,  3123,  4384
8278,   354,  3537,  3649
8288,  -725,  4284,  3388
8299, -2082,  5073,  3475
8308, -3588,  5567,  3833
8318, -5040,  5658,  4431
8329, -6418,  5322,  5205
8338, -7792,  4888,  6059
8348, -8909,  4619,  6778
8359, -9709,  4735,  7343
8369,-10203,  5109,  7696
8378,-10346,  5586,  7755
8388,-10253,  5922,  7614
8399, -9945,  6177,  7330
8408, -9495,  6386,  7006
8418, -8978,  6450,  6715
8429, -8457,  6353,  6512
8438, -7977,  6041,  6452
8448, -7596,  5770,  6467
8457, -7164,  5654,  6449
8468, -6668,  5636,  6394
8478, -6164,  5683,  6258
8487, -5657,  5763,  6071
8499, -5145,  5866,  5851
8508, -4685,  6006,  5645
8518, -4304,  6106,  5465
8527, -3989,  6106,  5323
8539, -3741,  5990,  5220
8548, -3555,  5839,  5194
8557, -3427,  5647,  5247
8568, -3347,  5494,  5374
8578, -3323,  5534,  5572
8587, -3340,  5613,  5836
8598, -3426,  5644,  6122
8608, -3572,  5615,  6385
8618, -3680,  5462,  6586
8627, -3778,  5272,  6706
8638, -3819,  5160,  6759
8648, -3815,  5124,  6760
8659, -3795,  5133,  6707
8668, -3723,  5170,  6610
8678, -3624,  5257,  6492
8687, -3535,  5390,  6424
8699, -3497,  5485,  6429
8708, -3516,  5551,  6467
8717, -3555,  5556,  6479
8727, -3552,  5518,  6433
8738, -3522,  5493,  6330
8747, -3485,  5485,  6235
8757, -3428,  5474,  6124
8768, -3375,  5438,  6025
8777, -3340,  5427,  5966
8788, -3323,  5431,  5958
8798, -3350,  5443,  6005
8808, -3390,  5441,  6085
8817, -3428,  5455,  6183
8828, -3464,  5453,  6276
8838, -3503,  5417,  6341
8847, -3530,  5347,  6380
8858, -3542,  5284,  6388
8868, -3545,  5300,  6388
8877, -3537,  5364,  6378
8888, -3518,  5439,  6344
8898, -3511,  5499,  6304
8907, -3511,  5487,  6274
8918, -3598,  5330,  6212
8928, -3509,  5237,  6147
8937, -3433,  5224,  6102
8947, -3429,  5250,  6114
8958, -3455,  5309,  6180
8967, -3512,  5326,  6270
8977, -3556,  5304,  6335
8988, -3580,  5304,  6376
8997, -3606,  5299,  6377
9008, -3594,  5264,  6349
9018, -3563,  5234,  6341
9027, -3564,  5211,  6377
9037, -3587,  5208,  6442
9048, -3626,  5224,  6515
9058, -3663,  5205,  6573
9067, -3673,  5125,  6574
9078, -3671,  5027,  6546
9088, -3641,  4998,  6512
9097, -3612,  5029,  6443
9107, -3549,  5105,  6344
9118, -3469,  5201,  6257
9127, -3430,  5287,  6217
9137, -3428,  5322,  6231
9148, -3457,  5300,  6287
9157, -3504,  5235,  6351
9168, -3557,  5148,  6416
9177, -3575,  5076,  6450
9187, -3593,  5070,  6462
9198, -3582,  5127,  6395
9207, -3503,  5212,  6293
9217, -3445,  5317,  6203
9228, -3437,  5447,  6187
9237, -3452,  5538,  6204
9247, -3427,  5540,  6190
9258, -3405,  5500,  6151
9267, -3378,  5442,  6105
9277, -3354,  5352,  6067
9288, -3357,  5306,  6055
9297, -3387,  5326,  6077
9307, -3412,  5389,  6086
9318, -3379,  5452,  6067
9327, -3324,  5475,  6050
9337, -3317,  5466,  6068
9348, -3301,  5462,  6052
9357, -3257,  5433,  6022
9367, -3288,  5382,  6021
9378, -3320,  5338,  6049
9387, -3443,  5324,  6143
9396, -3473,  5282,  6265
9408, -3537,  5269,  6364
9417, -3560,  5271,  6413
9426, -3558,  5284,  6384
9437, -3507,  5282,  6319
9447, -3459,  5275,  6262
9456, -3446,  5251,  6234
9467, -3430,  5195,  6242
9477, -3439,  5136,  6302
9486, -3447,  5123,  6374
9496, -3451,  5127,  6418
9507, -3430,  5127,  6430
9517, -3411,  5087,  6408
9526, -3419,  5020,  6371
9537, -3398,  4993,  6328
9547, -3381,  4999,  6305
9556, -3379,  5044,  6299
9567, -3414,  5051,  6240
9577, -3392,  5065,  6251
9586, -3409,  5113,  6280
9598, -3448,  5172,  6277
9607, -3497,  5281,  6280
9617, -3507,  5342,  6299
9626, -3463,  5293,  6237
9637, -3431,  5178,  6239
9647, -3432,  5076,  6345
9658, -3504,  5135,  6490
9667, -3726,  5010,  6618
9676, -3713,  4890,  6528
9687, -3619,  4758,  6275
9696, -3766,  4943,  6290
9707, -4499,  5112,  6398
9717, -4909,  5410,  6373
9728, -4684,  5961,  6434
9737, -4489,  6059,  6474
9746, -4564,  5836,  6316
9757, -4769,  5386,  6310
9767, -4719,  5246,  6054
9776, -4307,  5340,  5865
9787, -4706,  4993,  5854
9797, -4434,  4799,  5445
9806, -2867,  5066,  5030
9817, -2325,  5430,  5188
9827, -2737,  5395,  5390
9836, -3235,  5265,  5461
9846, -3696,  5227,  5600
9857, -4047,  5082,  5666
9867, -4626,  4958,  5726
9876, -4947,  4792,  5854
9887, -5041,  4708,  6145
9897, -4410,  4782,  6479
9906, -4224,  4925,  6864
9916, -4478,  5003,  7183
9927, -5076,  5406,  7180
9937, -4909,  5796,  6980
9946, -4502,  5807,  6705
9957, -4585,  5578,  6310
9967, -4576,  5128,  5956
9976, -4956,  4761,  5760
9987, -5325,  4515,  5664
9997, -5362,  4232,  5679
10006, -5327,  4168,  5811
10016, -5375,  4583,  5986
10027, -5321,  5363,  6116
10036, -5271,  5996,  6259
10046, -5391,  6266,  6447
10057, -5707,  6053,  6672
10066, -5834,  5713,  6655
10076, -5517,  5568,  6608
10087, -5473,  5311,  6307
10097, -5522,  5171,  5969
10106, -5759,  5032,  5763
10117, -5929,  4996,  5625
10126, -6031,  5078,  5573
10136, -6215,  5132,  5598
10147, -6342,  5088,  5609
10156, -6347,  5054,  5594
10166, -6016,  4766,  5470
10177, -5832,  4621,  5495
10186, -5586,  4574,  5540
10196, -5362,  4621,  5551
10207, -5240,  4718,  5667
10217, -5356,  5002,  5963
10226, -5438,  5243,  6287
10236, -5492,  5399,  6449
10247, -5458,  5391,  6445
10256, -5426,  5261,  6352
10266, -5369,  5079,  6213
10277, -5294,  4852,  6098
10287, -5333,  4639,  6008
10296, -5369,  4462,  5955
10305, -5352,  4324,  5930
10316, -5294,  4312,  5916
10326, -5221,  4361,  5950
10335, -5168,  4424,  6018
10346, -5156,  4484,  6125
10356, -5180,  4565,  6248
10366, -5216,  4634,  6328
10377, -5207,  4689,  6343
10386, -5199,  4753,  6283
10396, -5139,  4740,  6190
10406, -4910,  4542,  6074
10416, -4889,  4507,  6059
10426, -4943,  4476,  6088
10435, -4909,  4424,  6089
10447, -4791,  4405,  6092
10456, -4701,  4470,  6133
10465, -4593,  4546,  6233
10476, -4552,  4521,  6317
10486, -4597,  4467,  6431
10496, -4597,  4495,  6560
10507, -4387,  4525,  6667
10516, -4080,  4531,  6736
10526, -3707,  4548,  6771
10535, -3233,  4614,  6809
10546, -2620,  4696,  6875
10556, -2008,  4753,  7029
10565, -1456,  4764,  7277
10576,  -902,  4763,  7569
10586,  -352,  4897,  7832
10595,   258,  5092,  8004
10606,  1002,  5201,  8086
10616,  1714,  5384,  8081
10625,  2301,  5750,  8090
10636,  2919,  5987,  7942
10645,  3387,  5981,  7630
10656,  3560,  5710,  7402
10666,  3474,  5410,  7394
10675,  3312,  5087,  7380
10686,  2767,  4622,  7151
10695,  1779,  4343,  6735
10706,   676,  4651,  5922
10716,  -385,  5179,  4512
10725, -1490,  5727,  2740
10736, -2870,  5918,  1094
10745, -4787,  5324,   -82
10756, -6934,  4087,  -290
10766, -8630,  2748,   471
10775, -9649,  2027,  1820
10786,-11003,  1175,  3468
10795,-12383,   552,  5070
10806,-13444,   681,  6371
10816,-13838,  1118,  7454
10825,-13048,  1776,  7717
10836,-12159,  2605,  7218
10845,-10887,  3434,  5874
10856, -9828,  4072,  4848
10865, -8849,  4621,  4258
10875, -8189,  4967,  4046
10886, -7716,  4946,  4058
10895, -7395,  4722,  4265
10906, -7255,  4637,  4638
10915, -7019,  4568,  5070
10925, -6807,  4521,  5493
10936, -6665,  4516,  5809
10945, -6434,  4478,  5978
10956, -6159,  4446,  6065
10965, -5872,  4465,  6179
10976, -5652,  4514,  6337
10985, -5474,  4501,  6505
10995, -5349,  4457,  6656
11006, -5188,  4393,  6721
11015, -5144,  4203,  6646
11025, -5215,  3940,  6525
11036, -5249,  3704,  6394
11045, -5217,  3636,  6249
11056, -5123,  3686,  6095
11065, -4977,  3645,  5970
11075, -4886,  3587,  5930
11086, -4826,  3527,  5973
11095, -4789,  3467,  6079
11106, -4839,  3456,  6197
11115, -4939,  3467,  6301
11126, -4985,  3473,  6399
11135, -4983,  3462,  6419
11145, -4941,  3467,  6359
11156, -4789,  3496,  6262
11165, -4617,  3559,  6121
11176, -4487,  3626,  5962
11185, -4360,  3668,  5810
11195, -4278,  3648,  5745
11206, -4263,  3602,  5766
11215, -4352,  3572,  5858
11226, -4442,  3605,  5987
11235, -4434,  3675,  6094
11244, -4390,  3812,  6123
11255, -4254,  3957,  6065
11265, -4047,  4024,  5966
11276, -3837,  4079,  5848
11285, -3715,  4098,  5789
11294, -3688,  4040,  5773
11305, -3736,  3924,  5817
11315, -3805,  3794,  5873
11326, -3958,  3718,  5950
11335, -4119,  3716,  6026
11346, -4245,  3723,  6043
11355, -4308,  3753,  6012
11365, -4302,  3832,  5983
11376, -4231,  3870,  5962
11385, -4138,  3828,  5954
11394, -4067,  3747,  5978
11405, -3955,  3669,  6034
11414, -3923,  3664,  6173
11425, -4026,  3740,  6341
11435, -4229,  3853,  6467
11446, -4307,  3901,  6491
11455, -4263,  3881,  6394
11464, -4193,  3863,  6273
11476, -4067,  3853,  6161
11485, -3958,  3876,  6075
11494, -3925,  3858,  6029
11505, -3958,  3740,  6004
11515, -4023,  3604,  5993
11526, -4054,  3520,  5961
11535, -4050,  3488,  5958
11544, -4097,  3512,  5978
11555, -4143,  3548,  6035
11564, -4184,  3556,  6123
11575, -4191,  3541,  6164
11585, -4091,  3538,  6211
11594, -3953,  3592,  6228
11605, -3806,  3622,  6174
11614, -3736,  3587,  6124
11625, -3917,  3550,  6164
11635, -4007,  3366,  6177
11644, -3910,  3131,  6130
11655, -3870,  2917,  6106
11665, -4111,  2771,  6031
11674, -4298,  2604,  5863
11685, -4506,  2545,  5901
11695, -4601,  2407,  6017
11706, -4996,  2336,  5971
11715, -5135,  2322,  5836
11724, -5072,  2280,  5843
11735, -4962,  2704,  5725
11745, -4513,  3682,  5552
11754, -4069,  4786,  5588
11765, -3753,  5495,  5756
11774, -3412,  6040,  5766
11785, -2733,  6457,  5796
11795, -2032,  6380,  5847
11804, -2650,  5873,  5763
11815, -2496,  5705,  5375
11825, -1762,  4175,  5596
11834, -2417,  3542,  5582
11845,    98,  4696,  5340
11854,  -583,  5905,  5607
11865, -1571,  5589,  6326
11875, -1972,  5207,  6769
11884, -2455,  5121,  7080
11895, -2751,  5139,  7258
11905, -2730,  4869,  7342
11914, -2599,  4068,  7374
11925, -2515,  3626,  7247
11935, -2394,  3652,  7085
11944, -2343,  3969,  6940
11955, -2079,  4455,  6601
11965, -2314,  4962,  5942
11974, -2541,  5349,  5507
11985, -2242,  5731,  5199
11995, -1815,  5717,  4964
12004, -1806,  5274,  4902
12015, -1993,  4887,  4934
12024, -2051,  4892,  5109
12034, -2191,  5112,  5475
12045, -2360,  5309,  6007
12054, -2633,  5533,  6345
12064, -2793,  5729,  6673
12075, -2618,  5681,  7016
12084, -2496,  5742,  7128
12095, -2467,  5904,  7188
12104, -2557,  6219,  7128
12114, -2701,  6514,  6968
12125, -2712,  6686,  6809
12134, -2625,  6769,  6729
12145, -2633,  6903,  6689
12155, -2800,  7031,  6648
12164, -2976,  7024,  6569
12175, -3038,  6810,  6504
12184, -3005,  6435,  6417
12194, -2900,  6059,  6337
12205, -2777,  5920,  6271
12214, -2891,  6176,  6096
12223, -2968,  6307,  5914
12234, -2890,  6265,  5840
12244, -2966,  6120,  5845
12255, -3178,  5967,  5688
12264, -3273,  5937,  5620
12275, -3303,  6038,  5825
12284, -3461,  6104,  6346
12294, -3544,  6108,  6964
12305, -3583,  5993,  7445
12314, -3497,  5931,  7619
12325, -3334,  5980,  7439
12334, -2846,  6079,  6978
12343, -2170,  6167,  6475
12354, -1620,  6475,  6155
12364, -1396,  6972,  6214
12375, -1496,  7074,  6228
12384, -1895,  6866,  6176
12393, -2458,  6476,  6284
12404, -2879,  5991,  6397
12413, -2983,  5486,  6276
12424, -2988,  5223,  5996
12434, -3031,  5210,  5698
12445, -3116,  5296,  5423
12454, -3251,  5394,  5327
12464, -3444,  5542,  5440
12475, -3512,  5627,  5562
12484, -3451,  5618,  5665
12493, -3451,  5585,  5808
12504, -3519,  5498,  5969
12514, -3566,  5372,  6057
12525, -3601,  5262,  6040
12534, -3647,  5190,  5987
12543, -3650,  5147,  5963
12554, -3650,  5193,  5992
12564, -3605,  5287,  6095
12575, -3453,  5384,  6277
12584, -3151,  5451,  6515
12593, -2700,  5427,  6697
12604, -2088,  5229,  6770
12614, -1377,  4887,  6836
12625,  -683,  4499,  6993
12634,   -20,  4239,  7230
12643,   652,  4275,  7524
12654,  1337,  4547,  7743
12663,  1941,  4934,  7837
12674,  2494,  5206,  7856
12684,  2864,  5348,  7826
12693,  3085,  5549,  7654
12704,  3186,  5735,  7216
12713,  3068,  5936,  6599
12724,  2532,  6366,  5991
12734,  1705,  6884,  5594
12743,   803,  7413,  5422
12754,  -252,  7916,  5453
12763, -1411,  8283,  5589
12774, -2713,  8455,  5662
12783, -4045,  8298,  5568
12793, -5289,  7724,  5284
12804, -6623,  7065,  4985
12813, -7918,  6381,  4597
12824, -8816,  5773,  4180
12834, -9477,  5298,  4025
12843,-10019,  4918,  4162
12854,-10327,  4617,  4475
12863,-10428,  4456,  4861
12874,-10267,  4372,  5140
12883, -9902,  4400,  5254
12894, -9491,  4553,  5342
12904, -8987,  4865,  5457
12913, -8498,  5216,  5479
12924, -8007,  5422,  5413
12933, -7531,  5526,  5341
12944, -7175,  5562,  5341
12953, -6755,  5572,  5415
12963, -6356,  5559,  5578
12974, -6043,  5497,  5848
12983, -5792,  5459,  6149
12994, -5556,  5458,  6398
13003, -5312,  5482,  6566
13013, -5019,  5530,  6662
13024, -4824,  5560,  6652
13033, -4708,  5526,  6596
13044, -4641,  5462,  6542
13053, -4624,  5453,  6443
13064, -4588,  5469,  6352
13073, -4567,  5498,  6254
13083, -4562,  5473,  6169
13094, -4577,  5401,  6108
13103, -4609,  5323,  6086
13114, -4597,  5227,  6059
13123, -4587,  5102,  6034
13133, -4586,  5050,  6042
13144, -4585,  5004,  5981
13153, -4534,  4984,  5912
13164, -4455,  5062,  5866
13173, -4396,  5225,  5911
13184, -4353,  5418,  6008
13193, -4300,  5540,  6133
13203, -4250,  5576,  6269
13214, -4186,  5537,  6373
13223, -4125,  5471,  6428
13234, -4066,  5394,  6428
13243, -4059,  5300,  6389
13252, -4064,  5257,  6342
13263, -4077,  5264,  6311
13273, -4093,  5311,  6322
13284, -4078,  5369,  6337
13293, -4056,  5411,  6353
13302, -4038,  5474,  6363
13313, -4041,  5494,  6394
13323, -4061,  5513,  6443
13334, -4052,  5490,  6461
13343, -4037,  5475,  6434
13354, -4050,  5469,  6387
13363, -4073,  5442,  6338
13372, -4084,  5384,  6294
13383, -4108,  5348,  6264
13393, -4135,  5334,  6216
13404, -4138,  5317,  6166
13413, -4145,  5288,  6119
13424, -4152,  5280,  6070
13433, -4185,  5303,  6031
13442, -4193,  5320,  6034
13453, -4196,  5354,  6053
13463, -4209,  5391,  6094
13474, -4223,  5419,  6143
13483, -4216,  5425,  6158
13492, -4203,  5423,  6149
13503, -4214,  5398,  6149
13513, -4243,  5387,  6175
13524, -4296,  5366,  6218
13533, -4320,  5320,  6249
13542, -4307,  5296,  6285
13553, -4296,  5295,  6319
13562, -4300,  5269,  6346
13573, -4296,  5235,  6319
13583, -4304,  5210,  6283
13594, -4296,  5185,  6238
13603, -4298,  5170,  6222
13612, -4304,  5184,  6202
13623, -4289,  5187,  6177
13632, -4272,  5186,  6150
13643, -4266,  5178,  6134
13653, -4268,  5183,  6141
13664, -4271,  5207,  6142
13673, -4241,  5198,  6132
13682, -4247,  5174,  6141
13693, -4258,  5146,  6171
13702, -4252,  5151,  6198
13713, -4263,  5147,  6213
13723, -4278,  5133,  6232
13732, -4258,  5123,  6223
13743, -4262,  5105,  6238
13752, -4290,  5111,  6259
13763, -4290,  5119,  6263
13773, -4277,  5145,  6254
13782, -4251,  5205,  6258
13793, -4233,  5266,  6257
13802, -4203,  5264,  6249
13813, -4198,  5260,  6238
13822, -4197,  5288,  6235
13832, -4193,  5301,  6225
13843, -4184,  5296,  6222
13852, -4162,  5296,  6223
13863, -4151,  5319,  6235
13872, -4148,  5339,  6238
13883, -4139,  5346,  6228
13893, -4132,  5315,  6218
13902, -4131,  5270,  6203
13913, -4129,  5219,  6181
13922, -4118,  5147,  6136
13933, -4118,  5111,  6106
13942, -4129,  5117,  6099
13952, -4121,  5104,  6106
13963, -4096,  5117,  6119
13972, -4063,  5144,  6149
13983, -4042,  5185,  6183
13992, -4014,  5216,  6207
14003, -3976,  5233,  6227
14012, -3941,  5262,  6227
14022, -3934,  5256,  6217
14033, -3948,  5238,  6216
14042, -3978,  5192,  6219
14052, -3984,  5165,  6211
14063, -3979,  5171,  6204
14072, -3984,  5209,  6202
14083, -3998,  5245,  6217
14092, -4012,  5255,  6236
14103, -4035,  5238,  6285
14112, -4050,  5222,  6312
14122, -4054,  5205,  6320
14133, -4065,  5195,  6294
14142, -4066,  5148,  6246
14153, -4104,  5108,  6207
14162, -4152,  5074,  6181
14173, -4242,  5060,  6168
14182, -4291,  5034,  6148
14192, -4299,  4997,  6124
14203, -4301,  4981,  6128
14212, -4312,  4973,  6142
14223, -4322,  4969,  6184
14232, -4318,  4965,  6218
14241, -4292,  4941,  6231
14252, -4265,  4919,  6220
14262, -4267,  4881,  6236
14273, -4280,  4862,  6269
14282, -4279,  4875,  6307
14293, -4236,  4890,  6328
14302, -4167,  4915,  6326
14312, -4118,  4950,  6312
14322, -4107,  5017,  6306
14332, -4056,  5083,  6269
14343, -4004,  5148,  6257
14352, -3926,  5190,  6250
14361, -3931,  5257,  6304
14372, -3903,  5313,  6314
14382, -3839,  5335,  6288
14392, -3771,  5365,  6240
14402, -3747,  5374,  6232
14413, -3759,  5381,  6259
14422, -3757,  5380,  6285
14431, -3728,  5373,  6300
14442, -3694,  5394,  6294
14452, -3592,  5415,  6251
14463, -3449,  5407,  6009
14472, -3579,  5648,  6033
14481, -3443,  5646,  6126
14492, -3490,  5591,  6255
14501, -3585,  5526,  6304
14512, -3665,  5437,  6269
14522, -3697,  5418,  6217
14533, -3662,  5446,  6213
14542, -3626,  5472,  6229
14551, -3618,  5439,  6259
14562, -3646,  5436,  6239
14572, -3831,  5498,  6263
14582, -3898,  5655,  6279
14592, -3891,  5876,  6212
14601, -3799,  5969,  6118
14612, -3656,  5816,  6090
14621, -3541,  5871,  5920
14632, -3411,  6438,  5467
14642, -3338,  6593,  5263
14652, -3514,  6402,  5190
14662, -3960,  5945,  5273
14671, -4272,  5693,  5469
14682, -4555,  5862,  5668
14691, -4910,  6300,  5924
14702, -5392,  6275,  6266
14711, -5787,  5813,  6736
14722, -6225,  5367,  7150
14732, -6618,  5268,  7451
14741, -6594,  5354,  7632
14752, -6326,  5495,  7640
14761, -5960,  5633,  7440
14772, -5549,  5683,  7051
14782, -5181,  5702,  6626
14791, -4920,  5568,  6259
14802, -4725,  5200,  6012
14811, -4437,  4840,  5910
14822, -4227,  4784,  5989
14831, -4235,  5094,  6167
14841, -4533,  5344,  6328
14852, -4946,  5541,  6463
14861, -5127,  5623,  6520
14872, -5009,  5599,  6501
14881, -4756,  5514,  6410
14892, -4461,  5266,  6345
14901, -4262,  4924,  6287
14911, -4066,  4625,  6255
14922, -3863,  4381,  6242
14931, -3639,  4299,  6264
14942, -3505,  4478,  6270
14951, -3472,  4735,  6254
14961, -3466,  4812,  6155
14972, -3116,  4727,  5622
14981, -2830,  4453,  5447
14992, -2742,  4304,  5147
15001, -2702,  4350,  5031
15012, -3044,  4642,  5309
15021, -3459,  4734,  5701
15031, -3760,  4802,  6040
15042, -3936,  4807,  6300
15051, -4012,  4993,  6363
15062, -3890,  5064,  6218
15071, -3531,  4721,  5903
15082, -3216,  4385,  5624
15091, -1951,  4801,  5242
15101, -2448,  4215,  5191
15112, -3168,  5332,  5869
15121, -3438,  7131,  6762
15132, -3585,  7262,  6943
15141, -3945,  6684,  6897
15150, -4106,  6382,  6865
15161, -3951,  6568,  6799
15171, -3841,  6984,  6762
15182, -3883,  7100,  6910
15191, -4059,  7007,  7042
15202, -4213,  7060,  6982
15211, -4132,  7040,  6681
15221, -3977,  6862,  6358
15231, -3715,  6597,  5969
15241, -3480,  6265,  5668
15252, -3654,  6096,  5544
15261, -4383,  6391,  5510
15270, -5119,  7024,  5333
15281, -5493,  7448,  4994
15291, -5691,  7417,  5044
15301, -5871,  6612,  5429
15311, -6054,  5870,  5695
15322, -6264,  5574,  5671
15331, -6629,  5601,  5474
15340, -6563,  5496,  5298
15351, -6091,  5095,  5271
15361, -5712,  4671,  5439
15372, -5589,  4506,  5881
15381, -5788,  4778,  6310
15390, -6317,  5273,  6500
15401, -6955,  5833,  6562
15410, -7500,  6301,  6586
15421, -7715,  6661,  6416
15431, -7382,  6744,  6063
15442, -6808,  6770,  5698
15451, -6043,  6778,  5315
15460, -5400,  6709,  5046
15471, -5201,  6462,  5044
15481, -5304,  6303,  5204
15491, -5411,  6391,  5453
15501, -5502,  6563,  5670
15510, -5322,  6650,  5744
15521, -4980,  6669,  5773
15530, -4439,  6771,  5726
15541, -3835,  6979,  5673
15551, -3550,  7156,  5660
15562, -3569,  7016,  5706
15571, -3724,  6471,  5826
15580, -3820,  5893,  6103
15591, -3916,  5511,  6450
15601, -3843,  5502,  6701
15612, -3694,  5898,  6813
15621, -3616,  6451,  6775
15630, -3544,  7072,  6605
15641, -3482,  7652,  6373
15650, -3537,  8046,  6164
15661, -3777,  8110,  6040
15671, -4210,  7734,  6060
15680, -4551,  7204,  6166
15691, -4580,  6767,  6254
15700, -4353,  6517,  6313
15711, -4006,  6495,  6311
15720, -3679,  6633,  6312
15730, -3322,  6849,  6259
15741, -3003,  7090,  6129
15750, -2879,  7111,  5978
15761, -2956,  6880,  5898
15770, -3193,  6427,  5926
15781, -3541,  5874,  6067
15791, -3811,  5502,  6316
15800, -3957,  5378,  6593
15811, -4025,  5423,  6838
15820, -4074,  5550,  7001
15831, -4108,  5714,  7076
15841, -4050,  5890,  7040
15850, -4001,  6023,  6907
15861, -3956,  6160,  6701
15870, -3927,  6328,  6466
15881, -3940,  6523,  6227
15890, -4129,  6627,  6083
15901, -4355,  6627,  5997
15911, -4463,  6497,  5909
15920, -4444,  6305,  5850
15931, -4344,  6216,  5824
15940, -4198,  6139,  5820
15951, -4085,  6071,  5809
15960, -4077,  5998,  5830
15970, -4161,  5842,  5725
15981, -4035,  5648,  5328
15990, -3978,  5146,  5399
16001, -3991,  4810,  5299
16010, -3911,  4885,  5245
16021, -4067,  5309,  5381
16030, -4582,  5837,  6031
16040, -4965,  5888,  6297
16051, -4971,  5789,  6201
16060, -4827,  5802,  6084
16070, -4811,  5812,  6289
16081, -5122,  5955,  6718
16090, -5265,  5860,  6934
16101, -5233,  5898,  6958
16110, -5056,  5835,  6897
16120, -4994,  5892,  6749
16131, -4860,  6090,  6480
16140, -4668,  6238,  6234
16150, -4495,  6334,  6118
16161, -4360,  6367,  6145
16170, -4258,  6357,  6302
16181, -4059,  6313,  6484
16190, -3675,  6265,  6592
16199, -2884,  6273,  6535
16210, -2352,  6461,  6484
16220, -1757,  6650,  6513
16231, -1156,  6784,  6601
16240,  -377,  6829,  6715
16251,   952,  6701,  6745
16260,  2440,  6524,  6762
16269,  3854,  6386,  6884
16280,  5060,  6255,  7053
16290,  6007,  6001,  7142
16301,  6760,  5780,  6993
16310,  7116,  5574,  6554
16319,  7112,  5214,  5991
16330,  6781,  4788,  5390
16339,  5963,  4384,  4755
16350,  4540,  4113,  4154
16360,  2515,  4129,  3583
16371,   -43,  4455,  3049
16380, -2986,  5220,  2647
16389, -6004,  6464,  2411
16400, -8708,  7978,  2453
16410,-10744,  9316,  3110
16421,-12240, 10113,  4348
16430,-13182, 10337,  5869
16439,-13193, 10129,  7306
16450,-12569,  9601,  8389
16459,-11709,  8831,  9050
16470,-10677,  7905,  9377
16480, -9611,  7038,  9421
16491, -8572,  6313,  9150
16500, -7630,  5825,  8690
16509, -6927,  5604,  8162
16520, -6359,  5517,  7651
16529, -5891,  5513,  7280
16540, -5426,  5531,  7053
16550, -5016,  5565,  6938
16560, -4682,  5651,  6851
16571, -4462,  5755,  6710
16580, -4342,  5850,  6523
16589, -4308,  5943,  6246
16600, -4311,  6026,  5909
16610, -4391,  6108,  5574
16619, -4520,  6153,  5340
16630, -4606,  6192,  5229
16639, -4667,  6219,  5249
16650, -4665,  6202,  5386
16660, -4617,  6135,  5576
16669, -4517,  6025,  5773
16680, -4385,  5882,  5925
16689, -4243,  5762,  6016
16700, -4075,  5658,  6112
16710, -3945,  5518,  6235
16719, -3825,  5382,  6376
16730, -3748,  5298,  6496
16739, -3733,  5264,  6591
16750, -3724,  5250,  6631
16760, -3758,  5291,  6610
16769, -3814,  5404,  6522
16780, -3865,  5591,  6409
16789, -3924,  5783,  6288
16800, -3975,  5946,  6172
16810, -4039,  6045,  6102
16819, -4071,  6079,  6047
16830, -4080,  6079,  6021
16839, -4060,  6030,  6034
16850, -3985,  5948,  6050
16860, -3900,  5865,  6065
16869, -3873,  5798,  6062
16880, -3882,  5779,  6017
16889, -3891,  5790,  5938
16900, -3901,  5790,  5869
16909, -3897,  5761,  5839
16919, -3900,  5729,  5868
16930, -3897,  5656,  5977
16939, -3909,  5585,  6106
16950, -3897,  5531,  6205
16959, -3888,  5498,  6273
16969, -3892,  5514,  6298
16980, -3890,  5568,  6277
16989, -3903,  5592,  6266
17000, -3942,  5608,  6275
17009, -3984,  5629,  6266
17019, -4005,  5612,  6216
17029, -3999,  5562,  6163
17039, -3971,  5511,  6113
17050, -3950,  5486,  6104
17059, -3984,  5506,  6140
17070, -3995,  5505,  6225
17079, -3989,  5522,  6280
17089, -3997,  5553,  6265
17100, -3985,  5597,  6213
17109, -3997,  5665,  6146
17119, -4019,  5717,  6123
17130, -4043,  5732,  6138
17139, -4027,  5709,  6154
17150, -3974,  5650,  6161
17159, -3934,  5592,  6161
17168, -3922,  5570,  6161
17180, -3920,  5581,  6160
17189, -3940,  5612,  6174
17200, -3984,  5676,  6231
17209, -4029,  5758,  6312
17219, -4042,  5809,  6371
17230, -4030,  5824,  6394
17239, -3993,  5805,  6377
17250, -3974,  5794,  6320
17259, -3946,  5766,  6274
17269, -3944,  5720,  6278
17278, -3962,  5680,  6307
17289, -3957,  5683,  6328
17299, -3968,  5712,  6340
17310, -4003,  5741,  6333
17319, -4014,  5767,  6292
17329, -4001,  5794,  6226
17339, -3993,  5798,  6196
17349, -3982,  5767,  6201
17360, -3972,  5719,  6235
17369, -3956,  5687,  6270
17379, -3950,  5690,  6261
17390, -3963,  5726,  6237
17399, -4007,  5777,  6181
17409, -4044,  5802,  6131
17419, -4065,  5798,  6104
17429, -4061,  5778,  6096
17440, -4049,  5746,  6114
17449, -4047,  5735,  6148
17458, -4068,  5758,  6180
17469, -4083,  5778,  6218
17478, -4093,  5795,  6271
17489, -4089,  5802,  6327
17499, -4081,  5817,  6366
17508, -4088,  5847,  6395
17519, -4125,  5883,  6407
17528, -4174,  5918,  6409
17539, -4208,  5950,  6387
17549, -4249,  5980,  6358
17558, -4255,  5976,  6349
17569, -4256,  5916,  6386
17579, -4256,  5825,  6446
17588, -4216,  5773,  6467
17599, -4160,  5760,  6452
17608, -4117,  5743,  6435
17619, -4092,  5688,  6419
17629, -4092,  5691,  6358
17638, -4111,  5802,  6264
17649, -4152,  5935,  6170
17658, -4199,  6023,  6107
17669, -4236,  6038,  6084
17679, -4228,  5969,  6103
17688, -4213,  5884,  6154
17699, -4219,  5842,  6206
17709, -4212,  5835,  6232
17718, -4177,  5840,  6232
17729, -4115,  5848,  6239
17738, -4100,  5909,  6275
17749, -4189,  6020,  6323
17759, -4291,  6079,  6382
17768, -4331,  6048,  6424
17779, -4376,  5888,  6417
17789, -4412,  5783,  6402
17798, -4388,  5878,  6386
17809, -4254,  5995,  6324
17818, -4023,  6021,  6255
17829, -3827,  5971,  6202
17839, -3760,  5899,  6153
17848, -3754,  5778,  6130
17859, -3728,  5601,  6155
17868, -3667,  5460,  6236
17879, -3574,  5442,  6297
17889, -3476,  5462,  6298
17898, -3392,  5336,  6293
17909, -3351,  5147,  6306
17919, -3321,  5044,  6393
17928, -3293,  5171,  6534
17939, -3271,  5474,  6631
17948, -3268,  5712,  6730
17959, -3217,  5703,  6902
17968, -3094,  5493,  7170
17978, -2976,  5366,  7321
17989, -2859,  5346,  7225
17998, -2740,  5500,  6999
18008, -2817,  6003,  6694
18019, -3107,  6742,  6320
18028, -3473,  7402,  5878
18039, -3747,  7887,  5421
18048, -3737,  8044,  5011
18058, -3854,  7918,  4742
18068, -4115,  7610,  4698
18078, -4430,  7367,  4778
18089, -4778,  7325,  4868
18098, -5048,  7252,  4915
18107, -5231,  7077,  4916
18118, -5464,  6856,  4981
18128, -5728,  6543,  5236
18139, -5757,  6198,  5572
18148, -5503,  5939,  5796
18159, -5081,  5800,  5886
18168, -4671,  5856,  5887
18177, -4402,  6012,  5872
18189, -4317,  6097,  5874
18198, -4316,  6189,  5914
18207, -4368,  6324,  5947
18218, -4473,  6363,  6013
18228, -4596,  6368,  6090
18238, -4687,  6420,  6126
18248, -4662,  6410,  6163
18259, -4575,  6353,  6249
18268, -4476,  6256,  6321
18277, -4382,  6127,  6348
18289, -4277,  5952,  6349
18298, -4160,  5741,  6295
18307, -4045,  5551,  6221
18318, -3851,  5412,  6157
18328, -3550,  5267,  6169
18339, -2969,  5233,  6271
18348, -1890,  5432,  6446
18357,  -446,  6156,  6694
18368,   824,  7336,  7002
18378,  1435,  8381,  7311
18389,  1734,  8965,  7645
18398,  2055,  9134,  7839
18407,  2670,  9095,  7645
18418,  3277,  8921,  7136
18427,  3369,  8741,  6496
18438,  2901,  8676,  5825
18448,  1947,  8781,  5068
18459,   593,  9110,  4353
18468,  -897,  9288,  3886
18477, -2333,  9025,  3800
18488, -3646,  8197,  4207
18498, -4713,  6907,  4822
18509, -5632,  5426,  5452
18518, -6402,  3953,  6010
18527, -6983,  2717,  6447
18538, -7354,  1870,  6707
18547, -7613,  1342,  6823
18558, -7881,  1289,  6827
18568, -8163,  1645,  6747
18578, -8440,  2125,  6676
18588, -8713,  2666,  6586
18597, -8837,  3193,  6455
18608, -8731,  3637,  6309
18618, -8459,  4010,  6129
18627, -8106,  4295,  5959
18638, -7681,  4551,  5844
18647, -7260,  4758,  5765
18658, -6885,  4948,  5710
18668, -6571,  5165,  5687
18677, -6250,  5357,  5675
18688, -5961,  5575,  5654
18697, -5770,  5867,  5611
18708, -5639,  6185,  5548
18717, -5576,  6451,  5503
18728, -5503,  6661,  5533
18738, -5379,  6806,  5680
18747, -5229,  6832,  5877
18758, -5058,  6870,  6099
18767, -4912,  6922,  6318
18778, -4854,  6919,  6518
18787, -4827,  6848,  6664
18798, -4793,  6739,  6746
18808, -4763,  6631,  6735
18817, -4763,  6515,  6651
18828, -4822,  6426,  6525
18837, -4890,  6371,  6356
18848, -4927,  6326,  6179
18857, -4955,  6290,  6050
18868, -4958,  6254,  5987
18878, -4937,  6198,  6006
18887, -4908,  6151,  6077
18898, -4886,  6149,  6124
18907, -4828,  6142,  6129
18918, -4764,  6121,  6116
18927, -4732,  6124,  6086
18938, -4698,  6085,  6070
18948, -4646,  6036,  6046
18957, -4617,  6040,  6011
18968, -4602,  6065,  5976
18977, -4595,  6075,  5953
18987, -4569,  6109,  5953
18998, -4556,  6146,  5996
19007, -4546,  6157,  6071
19017, -4508,  6130,  6166
19028, -4466,  6068,  6234
19037, -4419,  6016,  6263
19047, -4391,  5980,  6284
19058, -4410,  5964,  6304
19067, -4419,  5935,  6302
19077, -4429,  5878,  6304
19088, -4447,  5846,  6287
19097, -4479,  5855,  6267
19107, -4517,  5873,  6267
19118, -4547,  5892,  6297
19127, -4544,  5897,  6326
19137, -4530,  5902,  6355
19148, -4508,  5884,  6402
19157, -4464,  5847,  6413
19167, -4437,  5863,  6380
19178, -4432,  5890,  6317
19187, -4421,  5906,  6225
19196, -4421,  5942,  6152
19208, -4433,  5970,  6101
19217, -4421,  5979,  6070
19226, -4416,  6007,  6058
19237, -4391,  6043,  6077
19247, -4341,  6095,  6097
19256, -4304,  6153,  6128
19267, -4288,  6161,  6140
19277, -4299,  6154,  6152
19286, -4289,  6155,  6176
19297, -4257,  6100,  6187
19307, -4230,  6055,  6198
19318, -4203,  5987,  6219
19327, -4178,  5892,  6247
19337, -4159,  5836,  6268
19348, -4158,  5812,  6295
19357, -4165,  5821,  6303
19367, -4155,  5804,  6289
19377, -4129,  5758,  6267
19387, -4124,  5738,  6232
19396, -4139,  5751,  6187
19407, -4162,  5773,  6172
19417, -4182,  5766,  6169
19426, -4189,  5748,  6155
19437, -4192,  5751,  6156
19447, -4210,  5764,  6175
19456, -4227,  5795,  6191
19467, -4241,  5812,  6197
19477, -4266,  5840,  6191
19488, -4317,  5873,  6182
19497, -4376,  5896,  6172
19506, -4415,  5915,  6150
19518, -4446,  5934,  6127
