time,accx,accy,accz
7, -3872,  3101, -1580
16, -3899,  3097, -1556
27, -3891,  3097, -1567
36, -3854,  3093, -1613
47, -3810,  3085, -1663
56, -3783,  3082, -1697
67, -3781,  3089, -1697
77, -3801,  3074, -1671
86, -3828,  3045, -1629
97, -3850,  3030, -1589
106, -3855,  3037, -1566
117, -3872,  3049, -1552
127, -3914,  3056, -1525
136, -3963,  3092, -1479
147, -4003,  3124, -1439
156, -4019,  3139, -1425
167, -4007,  3149, -1442
176, -3968,  3151, -1486
186, -3920,  3141, -1533
197, -3879,  3127, -1566
206, -3862,  3121, -1576
217, -3866,  3119, -1579
226, -3882,  3120, -1577
236, -3903,  3124, -1575
247, -3911,  3135, -1588
256, -3917,  3126, -1627
267, -3926,  3100, -1652
276, -3942,  3074, -1643
287, -3973,  3077, -1623
296, -3995,  3100, -1616
306, -3993,  3122, -1624
317, -3971,  3093, -1657
326, -3955,  3040, -1671
337, -3943,  2999, -1662
346, -3933,  2978, -1643
356, -3934,  2953, -1633
367, -3933,  2958, -1626
376, -3932,  2971, -1615
387, -3943,  2999, -1587
396, -3966,  3038, -1558
405, -3965,  3046, -1553
416, -3935,  3026, -1584
426, -3888,  2987, -1638
437, -3848,  2965, -1683
446, -3829,  2974, -1697
457, -3830,  3008, -1692
466, -3846,  3047, -1677
476, -3869,  3088, -1654
487, -3885,  3117, -1635
496, -3903,  3113, -1615
507, -3912,  3096, -1598
516, -3906,  3074, -1594
526, -3896,  3054, -1606
536, -3886,  3045, -1613
546, -3899,  3049, -1595
557, -3931,  3053, -1574
566, -3949,  3047, -1550
575, -3963,  3058, -1537
586, -3953,  3080, -1548
596, -3941,  3088, -1576
605, -3925,  3083, -1591
616, -3891,  3074, -1611
626, -3858,  3047, -1624
637, -3811,  2999, -1646
646, -3768,  2963, -1677
656, -3753,  2957, -1692
667, -3763,  2948, -1716
676, -3781,  2917, -1739
685, -3784,  2913, -1792
697, -3755,  2916, -1826
706, -3721,  2899, -1818
715, -3729,  2912, -1794
726, -3765,  2976, -1760
736, -3795,  3003, -1704
747, -3841,  3019, -1628
756, -3882,  3019, -1570
765, -3920,  3004, -1539
776, -3931,  2986, -1501
785, -3937,  3006, -1476
796, -3953,  3061, -1461
806, -3974,  3116, -1455
815, -3975,  3132, -1465
826, -3975,  3153, -1484
835, -3966,  3156, -1497
846, -3967,  3147, -1514
856, -3956,  3134, -1524
867, -3936,  3159, -1548
876, -3903,  3189, -1575
885, -3925,  3180, -1589
896, -3947,  3136, -1594
905, -3946,  3080, -1605
916, -3945,  3046, -1612
926, -3950,  3011, -1613
935, -3973,  2972, -1616
946, -3973,  2968, -1619
955, -3958,  2978, -1605
966, -3994,  2991, -1582
975, -4043,  3042, -1547
986, -4059,  3086, -1539
996, -4047,  3100, -1571
1005, -4003,  3113, -1621
1016, -3956,  3104, -1655
1025, -3917,  3078, -1674
1036, -3885,  3043, -1701
1046, -3866,  3001, -1698
1055, -3874,  2992, -1653
1066, -3913,  3017, -1599
1075, -3944,  3029, -1543
1086, -3934,  3025, -1535
1095, -3894,  2997, -1575
1106, -3844,  2999, -1618
1116, -3771,  3026, -1641
1125, -3663,  3058, -1630
1136, -3551,  3067, -1596
1145, -3401,  3031, -1517
1156, -3165,  3015, -1390
1166, -2855,  3055, -1254
1175, -2505,  3073, -1052
1186, -2109,  3038,  -731
1195, -1757,  2988,  -354
1206, -1547,  2941,    95
1215, -1390,  3055,   523
1225, -1098,  3244,   809
1236,  -625,  3262,   884
1245,   -60,  3064,   725
1256,   478,  2764,   429
1265,   966,  2562,     9
1275,  1379,  2551,  -506
1286,  1695,  2699,  -943
1295,  1813,  3004, -1229
1306,  1663,  3436, -1471
1315,  1210,  3938, -1585
1326,   617,  4428, -1602
1335,   -57,  4579, -1694
1345,  -798,  4371, -1861
1356, -1554,  3950, -2179
1365, -2221,  3404, -2798
1376, -2787,  2896, -3587
1385, -3324,  2565, -4450
1394, -4090,  2535, -5012
1405, -4887,  3124, -5350
1415, -6368,  3390, -5503
1426, -7273,  3421, -5153
1435, -8536,  2819, -4609
1446, -9537,  1716, -3737
1455,-10323,   555, -2721
1465,-10769,  -307, -1827
1476,-10821,  -681, -1314
1485,-10420,  -652, -1366
1496, -9671,  -410, -1768
1505, -8752,    63, -2290
1514, -7905,   770, -2804
1525, -7253,  1503, -3082
1535, -6948,  2222, -2992
1546, -6773,  2851, -2709
1555, -6358,  3189, -2515
1564, -6036,  3383, -2343
1575, -5595,  3487, -2207
1584, -5173,  3532, -2132
1595, -4788,  3701, -2125
1605, -4494,  4003, -2054
1616, -4329,  4387, -1784
1625, -4310,  4731, -1431
1635, -4367,  4904, -1098
1646, -4331,  4906,  -857
1655, -4243,  4708,  -724
1664, -4158,  4375,  -694
1675, -4055,  4012,  -682
1685, -3975,  3633,  -722
1696, -3880,  3288,  -830
1705, -3798,  3018,  -911
1714, -3726,  2835,  -987
1725, -3658,  2731, -1110
1735, -3555,  2635, -1256
1745, -3443,  2570, -1389
1755, -3391,  2564, -1479
1764, -3362,  2573, -1537
1775, -3364,  2588, -1569
1784, -3378,  2615, -1558
1795, -3400,  2692, -1535
1805, -3434,  2847, -1528
1816, -3483,  3063, -1571
1825, -3507,  3245, -1655
1834, -3474,  3309, -1760
1845, -3438,  3308, -1832
1854, -3396,  3286, -1820
1865, -3353,  3245, -1823
1875, -3312,  3190, -1862
1884, -3272,  3145, -1926
1895, -3240,  3106, -1978
1904, -3223,  3026, -2023
1915, -3212,  2888, -2053
1925, -3204,  2775, -2057
1934, -3232,  2727, -2058
1945, -3260,  2709, -2072
1954, -3264,  2677, -2104
1965, -3232,  2643, -2154
1974, -3168,  2587, -2184
1985, -3130,  2593, -2169
1995, -3161,  2656, -2096
2004, -3268,  2755, -1965
2015, -3394,  2840, -1827
2024, -3514,  2900, -1699
2035, -3616,  2971, -1616
2044, -3696,  3029, -1569
2055, -3750,  3024, -1550
2065, -3763,  2928, -1549
2074, -3758,  2844, -1541
2085, -3776,  2832, -1524
2094, -3786,  2860, -1519
2105, -3775,  2890, -1555
2115, -3738,  2919, -1613
2124, -3699,  2961, -1665
2135, -3683,  2994, -1695
2144, -3686,  3036, -1693
2155, -3716,  3093, -1646
2164, -3763,  3110, -1599
2174, -3794,  3081, -1555
2185, -3829,  2975, -1491
2194, -3830,  2890, -1462
2205, -3801,  2862, -1512
2214, -3738,  2886, -1605
2224, -3641,  2913, -1706
2235, -3553,  3038, -1854
2244, -3476,  3147, -2017
2255, -3354,  3134, -2021
2264, -3304,  3058, -1907
2274, -3310,  3024, -1771
2285, -3376,  3151, -1693
2294, -3302,  3135, -1625
2305, -3183,  3066, -1537
2314, -3080,  2966, -1510
2324, -2986,  2905, -1532
2335, -2865,  2815, -1592
2344, -2703,  2720, -1645
2355, -2616,  2583, -1705
2364, -2715,  2390, -1668
2373, -2882,  2091, -1498
2384, -3045,  1876, -1274
2394, -3297,  1728, -1190
2405, -3434,  1732, -1351
2414, -3285,  1796, -1678
2423, -2979,  1683, -2140
2434, -2589,  1629, -2661
2444, -2303,  1691, -3175
2455, -2285,  1828, -3420
2464, -2424,  1881, -3108
2475, -2645,  2176, -2519
2484, -3131,  2781, -1799
2494, -3544,  3490, -1192
2505, -3526,  4318, -1042
2514, -3551,  4947, -1288
2525, -3164,  5102, -1746
2534, -2702,  4859, -2125
2543, -2421,  4545, -2410
2554, -2217,  4305, -2391
2564, -2087,  4228, -1940
2575, -2133,  4289, -1536
2584, -2421,  4610, -1214
2593, -2665,  4892, -1047
2604, -2800,  4803, -1101
2614, -2780,  4435, -1299
2625, -2542,  4060, -1618
2634, -2246,  3729, -1917
2643, -1822,  3435, -2095
2654, -1292,  3369, -2152
2663,  -890,  3348, -2100
2674,  -671,  3408, -2002
2684,  -715,  3427, -1912
2695,  -957,  3358, -1918
2704, -1191,  3209, -1987
2713, -1278,  3206, -2127
2724, -1375,  3342, -2200
2734, -1412,  3426, -2236
2745, -1394,  3436, -2238
2754, -1324,  3503, -2123
2763, -1233,  3440, -1841
2774, -1199,  3609, -1534
2783, -1249,  3850, -1277
2794, -1367,  3909, -1001
2804, -1648,  3848,  -809
2813, -1714,  3855,  -740
2824, -1836,  3909,  -847
2833, -1939,  3826,  -996
2844, -1935,  3833, -1173
2853, -1652,  3951, -1328
2864, -1458,  3971, -1347
2874, -1598,  3842, -1348
2883, -1669,  3709, -1366
2894, -1704,  3727, -1418
2903, -1820,  3677, -1523
2914, -1889,  3602, -1603
2924, -1974,  3598, -1572
2933, -2162,  3691, -1404
2944, -2361,  3848, -1235
2953, -2451,  3961, -1071
2964, -2454,  4023, -1017
2973, -2497,  3908,  -954
2984, -2710,  3640,  -941
2994, -2915,  3449, -1048
3003, -3052,  3294, -1071
3014, -2966,  3230, -1091
3023, -2627,  3297, -1150
3034, -2096,  3417, -1261
3043, -1585,  3643, -1405
3054, -1182,  3818, -1580
3064,  -967,  3884, -1796
3073,  -824,  3959, -2010
3084,  -724,  4043, -2177
3093,  -763,  4069, -2229
3104, -1012,  3992, -2147
3113, -1255,  3880, -1995
3123, -1414,  3817, -1817
3134, -1560,  3759, -1614
3143, -1580,  3743, -1463
3154, -1520,  3819, -1444
3163, -1544,  4023, -1499
3173, -1497,  4216, -1491
3184, -1468,  4292, -1471
3193, -1471,  4122, -1494
3204, -1719,  3655, -1489
3213, -1895,  3355, -1485
3223, -1816,  3259, -1575
3234, -1760,  3325, -1669
3243, -1750,  3427, -1742
3254, -1716,  3527, -1821
3263, -1810,  3584, -1948
3272, -2066,  3563, -2030
3283, -2291,  3509, -2119
3293, -2309,  3463, -2119
3304, -2206,  3519, -2035
3313, -2006,  3564, -1938
3324, -1798,  3573, -1857
3333, -1655,  3480, -1767
3343, -1649,  3420, -1644
3354, -1807,  3527, -1473
3363, -2075,  3700, -1271
3374, -2321,  3836, -1110
3383, -2389,  3954, -1027
3393, -2334,  3932,  -959
3404, -2293,  3757,  -922
3413, -2325,  3579,  -952
3424, -2400,  3497, -1044
3433, -2425,  3488, -1177
3442, -2367,  3470, -1316
3453, -2254,  3427, -1433
3463, -2225,  3405, -1493
3474, -2330,  3388, -1485
3483, -2344,  3403, -1417
3494, -2272,  3453, -1317
3503, -2189,  3517, -1195
3513, -2038,  3486, -1066
3523, -1782,  3457, -1012
3533, -1703,  3339,  -986
3544, -1683,  3286, -1015
3553, -1611,  3280, -1079
3562, -1374,  3320, -1063
3573,  -963,  3437,  -977
3583,  -486,  3610,  -807
3594,   -11,  3761,  -558
3603,   364,  3853,  -325
3614,   711,  3798,  -176
3623,  1086,  3619,  -177
3632,  1510,  3357,  -320
3643,  1869,  3158,  -554
3653,  2046,  3139,  -810
3664,  2030,  3231, -1094
3673,  1844,  3398, -1423
3682,  1509,  3546, -1717
3693,  1151,  3721, -2125
3703,   772,  3569, -2350
3713,   402,  3386, -2485
3723,   -22,  3651, -2655
3732,  -339,  3810, -2654
3743,  -984,  3777, -2547
3752, -1648,  3751, -2403
3763, -2330,  3920, -2415
3773, -2839,  3794, -2503
3784, -3340,  3335, -2550
3793, -3902,  2883, -2459
3802, -4371,  2695, -2240
3813, -5001,  2904, -1810
3822, -4459,  2709, -1327
3833, -5268,  2496,  -966
3843, -6185,  3315, -1133
3854, -7207,  3943, -1432
3863, -8120,  4337, -1925
3872, -8432,  4435, -2436
3883, -8037,  4260, -2853
3892, -7286,  3872, -3068
3903, -6575,  3332, -3083
3913, -5924,  2728, -2976
3922, -5299,  2114, -2717
3933, -4767,  1773, -2268
3942, -4391,  1697, -1701
3953, -4216,  1921, -1065
3963, -4177,  2259,  -492
3972, -4146,  2573,   -82
3983, -4027,  2759,    98
3992, -3797,  2853,    28
4003, -3579,  2868,  -223
4012, -3341,  2821,  -520
4023, -3053,  2817,  -759
4033, -2767,  2796,  -924
4042, -2525,  2810, -1013
4053, -2372,  2954, -1044
4062, -2410,  3213, -1068
4073, -2589,  3546, -1103
4082, -2860,  3828, -1146
4092, -3159,  3972, -1229
4103, -3331,  3962, -1397
4112, -3370,  3923, -1593
4123, -3267,  3833, -1744
4132, -3147,  3718, -1782
4143, -3063,  3668, -1713
4152, -3032,  3699, -1603
4162, -2970,  3613, -1528
4173, -2871,  3502, -1484
4182, -2803,  3423, -1479
4193, -2730,  3442, -1485
4202, -2675,  3521, -1488
4213, -2644,  3575, -1458
4222, -2576,  3491, -1430
4232, -2532,  3418, -1415
4243, -2538,  3457, -1408
4252, -2543,  3607, -1413
4263, -2572,  3798, -1379
4272, -2558,  3917, -1337
4282, -2422,  3903, -1342
4293, -2267,  3744, -1364
4302, -2179,  3548, -1416
4313, -2129,  3433, -1486
4322, -2145,  3400, -1561
4333, -2243,  3406, -1615
4342, -2365,  3479, -1652
4352, -2456,  3558, -1721
4363, -2532,  3586, -1788
4372, -2606,  3582, -1835
4383, -2697,  3600, -1875
4392, -2763,  3647, -1918
4401, -2774,  3692, -1940
4412, -2733,  3646, -1934
4422, -2688,  3531, -1896
4433, -2673,  3460, -1851
4442, -2676,  3440, -1822
4451, -2699,  3468, -1813
4462, -2765,  3495, -1794
4472, -2824,  3505, -1744
4483, -2843,  3486, -1692
4492, -2859,  3432, -1659
4503, -2880,  3389, -1670
4512, -2889,  3400, -1679
4521, -2882,  3426, -1663
4532, -2875,  3412, -1638
4542, -2885,  3363, -1587
4553, -2891,  3308, -1543
4562, -2872,  3259, -1535
4571, -2866,  3223, -1542
4582, -3142,  3287, -1544
4592, -3874,  3864, -1529
4603, -2647,  3532, -1590
4612, -3548,  3632, -1557
4621, -3100,  3398, -1640
4632, -2669,  2980, -1704
4642, -2926,  2973, -1725
4653, -3041,  3169, -1647
4662, -3082,  3270, -1562
4671, -3246,  3358, -1505
4683, -3297,  3352, -1491
4692, -3276,  3358, -1519
4701, -3283,  3382, -1549
4712, -3193,  3338, -1561
4722, -3131,  3291, -1556
4733, -3141,  3355, -1643
4742, -3215,  3499, -1825
4751, -3131,  3538, -1873
4762, -3304,  3389, -1469
4772, -3297,  3491, -1188
4781, -3287,  3363, -1064
4792, -3098,  3190, -1180
4801, -2979,  3115, -1281
4812, -2941,  3000, -1385
4822, -2841,  2877, -1550
4831, -2821,  2845, -1685
4842, -2812,  2934, -1714
4851, -2801,  3055, -1590
4862, -2814,  3260, -1370
4871, -2847,  3371, -1131
4882, -2855,  3432,  -973
4892, -2870,  3482,  -915
4901, -2877,  3563, -1003
4912, -2752,  3652, -1210
4921, -2658,  3542, -1465
4932, -2498,  3820, -1872
4942, -2596,  4180, -2000
4951, -3059,  4039, -1730
4962, -3106,  3859, -1387
4971, -2897,  3682, -1259
4982, -2506,  3668, -1245
4991, -2268,  3651, -1316
5002, -2197,  3700, -1419
5012, -1980,  3844, -1655
5021, -1731,  3931, -2042
5032, -1682,  3959, -2375
5041, -1822,  3777, -2610
5052, -2179,  3368, -2730
5061, -2564,  2763, -2580
5071, -2961,  2119, -2203
5082, -3224,  1924, -1773
5091, -3099,  2185, -1398
5102, -2839,  2682, -1198
5111, -2690,  3223, -1148
5122, -2479,  3803, -1334
5131, -2214,  4302, -1631
5141, -2266,  4336, -1677
5152, -2492,  3956, -1527
5161, -2542,  3511, -1443
5172, -2609,  3045, -1499
5181, -2008,  2883, -1802
5192,  -946,  2919, -2239
5201, -1204,  3131, -2174
5211, -1097,  3256, -2325
5222, -1357,  3481, -2471
5231, -1858,  3635, -2507
5242, -2944,  3880, -2432
5251, -3007,  3609, -2408
5262, -3305,  3502, -2105
5271, -3437,  3892, -1935
5281, -3837,  4116, -2043
5292, -3846,  4206, -2156
5301, -3054,  4169, -2271
5312, -2127,  4073, -2381
5321, -1689,  3947, -2487
5330, -1663,  3837, -2547
5341, -1771,  3855, -2527
5351, -2004,  3948, -2422
5362, -2004,  4065, -2502
5371, -1820,  4058, -2727
5382, -1495,  3927, -2846
5391, -1397,  3790, -2771
5400, -1607,  3967, -2612
5411, -1811,  4258, -2342
5421, -1941,  4213, -1889
5432, -1918,  4015, -1462
5441, -1851,  3999, -1245
5452, -1858,  4082, -1127
5461, -1772,  4223, -1137
5470, -1661,  4346, -1277
5481, -1625,  4491, -1517
5491, -1567,  4649, -1803
5502, -1490,  4696, -2021
5511, -1360,  4635, -2178
5520, -1245,  4658, -2318
5531, -1155,  4718, -2412
5541, -1299,  4704, -2501
5552, -1565,  4698, -2624
5561, -1758,  4585, -2570
5570, -1743,  4611, -2455
5581, -1601,  4720, -2323
5591, -1538,  4711, -2152
5602, -1548,  4704, -1963
5611, -1632,  4738, -1809
5620, -1697,  4686, -1678
5631, -1761,  4650, -1605
5640, -1849,  4534, -1521
5651, -1963,  4472, -1447
5661, -2118,  4460, -1398
5672, -2220,  4358, -1350
5681, -2243,  4297, -1340
5690, -2393,  4182, -1458
5701, -2700,  4194, -1859
5710, -2421,  3874, -2411
5721, -2140,  3693, -2591
5731, -2150,  3713, -2296
5742, -2325,  3840, -1842
5751, -2498,  3863, -1482
5760, -2324,  3878, -1403
5771, -1969,  3919, -1580
5780, -1989,  4003, -1921
5791, -1947,  3697, -1903
5801, -1925,  3748, -1776
5810, -1878,  3856, -1643
5821, -1686,  3919, -1587
5830, -1409,  3887, -1638
5841,  -995,  3905, -1778
5850,  -476,  3865, -1961
5861,   159,  3871, -2211
5871,   875,  3900, -2404
5880,  1648,  3859, -2574
5891,  2444,  3756, -2565
5900,  3164,  3774, -2439
5911,  3825,  3904, -2306
5921,  4293,  4084, -2153
5930,  4559,  4298, -2076
5941,  4486,  4574, -2117
5950,  4139,  4701, -2387
5961,  3529,  4704, -2855
5970,  2799,  4758, -3529
5981,  1939,  4763, -4278
5990,   840,  4579, -4779
6000,  -579,  4236, -4700
6011, -2190,  3862, -4222
6020, -3581,  3618, -3621
6031, -4765,  3484, -3047
6040, -5739,  3352, -2586
6051, -6658,  3224, -2224
6061, -7359,  3068, -1960
6070, -7716,  2974, -1816
6081, -7761,  3016, -1786
6090, -7734,  3098, -1813
6101, -7609,  3198, -1885
6110, -7309,  3200, -1797
6120, -6911,  3198, -1591
6131, -6435,  3239, -1340
6140, -5885,  3334, -1160
6151, -5381,  3462, -1012
6160, -4881,  3561,  -900
6171, -4387,  3615,  -861
6180, -3907,  3645,  -886
6190, -3530,  3786,  -973
6201, -3251,  3816,  -991
6210, -3087,  3878,  -960
6221, -3005,  3966,  -952
6230, -2930,  3990,  -931
6239, -2874,  4069,  -902
6250, -2808,  4192,  -908
6260, -2757,  4278,  -860
6271, -2733,  4332,  -819
6280, -2731,  4376,  -842
6291, -2765,  4363,  -956
6300, -2731,  4247, -1201
6309, -2591,  4158, -1518
6321, -2446,  4064, -1810
6330, -2372,  3958, -1957
6339, -2314,  3982, -2033
6350, -2158,  3998, -2056
6360, -2059,  4026, -2024
6370, -2090,  4058, -1992
6380, -2182,  4030, -1908
6391, -2299,  3982, -1814
6400, -2388,  3969, -1743
6411, -2455,  3979, -1681
6420, -2482,  3956, -1669
6430, -2470,  3951, -1716
6441, -2429,  3927, -1803
6450, -2388,  3919, -1914
6461, -2331,  3904, -2012
6470, -2273,  3891, -2074
6480, -2224,  3883, -2115
6490, -2187,  3874, -2097
6500, -2172,  3870, -2014
6511, -2186,  3876, -1901
6520, -2249,  3872, -1777
6529, -2332,  3860, -1671
6540, -2377,  3882, -1637
6549, -2439,  3911, -1683
6560, -2491,  3884, -1748
6570, -2524,  3850, -1784
6579, -2538,  3813, -1790
6591, -2532,  3796, -1750
6600, -2491,  3792, -1706
6609, -2386,  3821, -1693
6621, -2275,  3850, -1697
6630, -2239,  3826, -1722
6639, -2212,  3760, -1744
6650, -2190,  3710, -1770
6660, -2171,  3675, -1805
6669, -2151,  3654, -1856
6680, -2159,  3631, -1877
6690, -2217,  3626, -1893
6699, -2348,  3633, -1909
6710, -2505,  3611, -1921
6720, -2545,  3572, -1926
6729, -2427,  3581, -1936
6741, -2256,  3605, -1940
6750, -2119,  3630, -1934
6760, -2063,  3663, -1899
6771, -2086,  3670, -1854
6780, -2139,  3667, -1818
6790, -2188,  3668, -1786
6800, -2302,  3674, -1767
6810, -2482,  3653, -1752
6820, -2641,  3627, -1768
6829, -2802,  3627, -1804
6840, -2894,  3616, -1814
6850, -2860,  3616, -1816
6860, -2742,  3647, -1795
6870, -2585,  3696, -1723
6880, -2474,  3686, -1671
6889, -2489,  3596, -1705
6900, -2542,  3559, -1755
6910, -2603,  3522, -1807
6919, -2639,  3503, -1879
6930, -2658,  3492, -1957
6940, -2650,  3475, -2045
6949, -2683,  3472, -2173
6959, -2813,  3457, -2242
6970, -2953,  3503, -2227
6980, -3000,  3558, -2200
6989, -2813,  3534, -2123
7000, -2499,  3504, -1985
7010, -2251,  3540, -1798
7019, -2137,  3611, -1639
7029, -2110,  3616, -1471
7040, -2187,  3589, -1399
7049, -2375,  3581, -1437
7059, -2553,  3507, -1522
7070, -2610,  3532, -1737
7079, -2580,  3607, -1899
7089, -2582,  3456, -1931
7100, -2540,  3372, -1872
7109, -2407,  3339, -1789
7119, -2338,  3344, -1714
7130, -2449,  3410, -1615
7139, -2597,  3436, -1573
7149, -2705,  3488, -1578
7160, -2780,  3495, -1582
7169, -2808,  3450, -1549
7179, -2767,  3387, -1520
7189, -2692,  3324, -1476
7200, -2609,  3289, -1469
7209, -2537,  3336, -1480
7220, -2508,  3327, -1468
7230, -2575,  3279, -1411
7239, -2632,  3278, -1391
7250, -2682,  3307, -1422
7259, -2747,  3259, -1412
7269, -2775,  3278, -1445
7280, -2713,  3290, -1444
7289, -2621,  3218, -1345
7299, -2500,  3133, -1361
7310, -2090,  3151, -1691
7319, -1732,  3050, -2021
7329, -1447,  3074, -2120
7340, -1361,  3245, -2147
7350, -1384,  3408, -2082
7359, -1609,  3902, -2063
7369, -1884,  4496, -2180
7380, -1911,  4866, -2228
7389, -1778,  4854, -2240
7399, -1856,  4586, -2304
7409, -2032,  4182, -2763
7419, -1976,  3836, -3037
7429, -2115,  3677, -2926
7440, -2361,  3760, -2616
7449, -2504,  3963, -2259
7459, -2561,  4143, -1836
7470, -2110,  4317, -1324
7479, -1128,  4539, -1087
7489,  -191,  4590, -1246
7498,     5,  4337, -1701
7509,  -405,  4083, -2048
7519, -1082,  4043, -2129
7528, -1659,  4211, -2104
7539, -2023,  4422, -2069
7549, -2221,  4549, -1945
7558, -2193,  4594, -1785
7569, -2016,  4683, -1759
7579, -1854,  4915, -1797
7588, -1776,  5204, -1798
7599, -1853,  5524, -1753
7609, -2073,  5751, -1630
7619, -2318,  5826, -1450
7628, -2479,  5752, -1307
7639, -2543,  5559, -1271
7649, -2419,  5287, -1288
7659, -2184,  5061, -1377
7668, -1975,  4920, -1503
7679, -1868,  4895, -1658
7689, -1878,  4952, -1851
7699, -1915,  5023, -1977
7709, -1990,  5056, -2007
7719, -2046,  5069, -1969
7728, -2073,  5013, -1855
7738, -2126,  4962, -1748
7749, -2168,  4879, -1681
7759, -2097,  4752, -1638
7768, -1981,  4623, -1619
7779, -1863,  4568, -1624
7789, -1836,  4692, -1687
7798, -1881,  4887, -1805
7809, -1927,  4924, -1936
7819, -1871,  4769, -2049
7828, -1762,  4586, -2134
7839, -1668,  4534, -2130
7849, -1635,  4566, -2082
7858, -1683,  4562, -1953
7868, -1809,  4521, -1791
7879, -1860,  4554, -1613
7888, -1888,  4614, -1467
7898, -1971,  4637, -1335
7909, -2012,  4619, -1350
7919, -2014,  4486, -1493
7928, -1887,  4291, -1557
7939, -1734,  4208, -1497
7949, -1700,  4339, -1440
7958, -1695,  4496, -1516
7968, -1431,  4381, -2019
7979, -1110,  4336, -2365
7989,  -994,  4357, -2451
7998, -1144,  4420, -2411
8008, -1387,  4394, -2342
8019, -1633,  4308, -2249
8028, -1796,  4227, -2086
8038, -1852,  4253, -1838
8049, -1971,  4288, -1569
8059, -2071,  4267, -1340
8068, -2033,  4346, -1111
8078, -1942,  4505,  -918
8089, -1878,  4559,  -797
8098, -1812,  4524,  -733
8108, -1717,  4510,  -760
8118, -1497,  4541,  -880
8129, -1146,  4513, -1074
8138,  -680,  4444, -1214
8148,   -52,  4300, -1185
8158,   644,  4061,  -957
8169,  1424,  3833,  -570
8178,  2240,  3651,  -133
8188,  3040,  3647,   280
8199,  3713,  3741,   630
8208,  4157,  3713,   874
8218,  4296,  3526,   824
8229,  4073,  3241,   459
8238,  3739,  2920,  -281
8247,  3294,  2470, -1401
8259,  2764,  2024, -2616
8268,  2005,  1928, -3688
8278,   988,  2349, -4431
8288,  -129,  3107, -4697
8299, -1479,  3918, -4612
8308, -2946,  4447, -4257
8318, -4339,  4577, -3659
8329, -5640,  4269, -2882
8338, -6931,  3846, -2020
8348, -7980,  3568, -1293
8359, -8736,  3654,  -718
8369, -9211,  3992,  -359
8378, -9357,  4438,  -295
8388, -9279,  4748,  -435
8399, -8989,  4976,  -716
8408, -8552,  5151, -1037
8418, -8046,  5177, -1323
8429, -7530,  5040, -1521
8438, -7049,  4693, -1574
8448, -6666,  4393, -1554
8457, -6236,  4251, -1569
8468, -5748,  4210, -1620
8478, -5255,  4238, -1754
8487, -4761,  4300, -1940
8499, -4264,  4388, -2158
8508, -3819,  4513, -2363
8518, -3452,  4598, -2542
8527, -3149,  4584, -2682
8539, -2908,  4456, -2784
8548, -2722,  4293, -2807
8557, -2589,  4089, -2751
8568, -2497,  3925, -2621
8578, -2457,  3953, -2420
8587, -2460,  4023, -2152
8598, -2532,  4050, -1863
8608, -2668,  4022, -1599
8618, -2771,  3874, -1398
8627, -2869,  3692, -1281
8638, -2913,  3587, -1229
8648, -2916,  3554, -1230
8659, -2907,  3562, -1283
8668, -2846,  3596, -1381
8678, -2758,  3676, -1499
8687, -2677,  3798, -1565
8699, -2644,  3879, -1558
8708, -2670,  3932, -1519
8717, -2719,  3924, -1506
8727, -2729,  3878, -1550
8738, -2712,  3845, -1654
8747, -2686,  3833, -1749
8757, -2637,  3821, -1860
8768, -2588,  3785, -1960
8777, -2553,  3775, -2018
8788, -2531,  3778, -2026
8798, -2549,  3788, -1978
8808, -2580,  3783, -1896
8817, -2611,  3792, -1796
8828, -2641,  3783, -1701
8838, -2678,  3741, -1635
8847, -2706,  3665, -1595
8858, -2720,  3598, -1586
8868, -2728,  3608, -1586
8877, -2724,  3668, -1595
8888, -2711,  3741, -1629
8898, -2709,  3799, -1669
8907, -2712,  3789, -1700
8918, -2802,  3639, -1764
8928, -2720,  3558, -1832
8937, -2646,  3556, -1879
8947, -2635,  3592, -1869
8958, -2652,  3659, -1803
8967, -2702,  3685, -1715
8977, -2744,  3672, -1652
8988, -2769,  3679, -1611
8997, -2800,  3677, -1612
9008, -2794,  3642, -1641
9018, -2770,  3608, -1648
9027, -2774,  3577, -1611
9037, -2800,  3563, -1545
9048, -2843,  3565, -1469
9058, -2888,  3532, -1409
9067, -2909,  3438, -1406
9078, -2920,  3330, -1433
9088, -2902,  3289, -1465
9097, -2886,  3309, -1533
9107, -2835,  3377, -1632
9118, -2767,  3469, -1719
9127, -2737,  3555, -1760
9137, -2741,  3594, -1746
9148, -2775,  3576, -1692
9157, -2828,  3513, -1629
9168, -2887,  3422, -1564
9177, -2916,  3342, -1529
9187, -2947,  3323, -1515
9198, -2954,  3364, -1580
9207, -2897,  3433, -1680
9217, -2857,  3526, -1769
9228, -2865,  3648, -1784
9237, -2893,  3731, -1766
9247, -2886,  3728, -1781
9258, -2882,  3682, -1819
9267, -2870,  3617, -1864
9277, -2858,  3520, -1902
9288, -2869,  3469, -1913
9297, -2905,  3487, -1892
9307, -2935,  3550, -1882
9318, -2906,  3613, -1902
9327, -2853,  3639, -1919
9337, -2843,  3631, -1901
9348, -2824,  3627, -1917
9357, -2775,  3602, -1948
9367, -2798,  3555, -1949
9378, -2820,  3514, -1922
9387, -2933,  3503, -1828
9396, -2957,  3462, -1706
9408, -3021,  3450, -1606
9417, -3049,  3449, -1557
9426, -3054,  3457, -1585
9437, -3011,  3450, -1650
9447, -2970,  3442, -1707
9456, -2962,  3419, -1736
9467, -2950,  3367, -1729
9477, -2963,  3313, -1671
9486, -2974,  3303, -1599
9496, -2983,  3308, -1555
9507, -2968,  3304, -1544
9517, -2956,  3258, -1564
9526, -2967,  3182, -1599
9537, -2948,  3144, -1640
9547, -2926,  3137, -1659
9556, -2913,  3168, -1662
9567, -2931,  3160, -1715
9577, -2883,  3162, -1700
9586, -2866,  3198, -1666
9598, -2863,  3245, -1663
9607, -2860,  3341, -1653
9617, -2812,  3386, -1625
9626, -2705,  3324, -1679
9637, -2609,  3207, -1669
9647, -2545,  3111, -1559
9658, -2552,  3179, -1408
9667, -2714,  3061, -1274
9676, -2645,  2938, -1355
9687, -2485,  2782, -1594
9696, -2547,  2921, -1554
9707, -3166,  3043, -1416
9717, -3475,  3301, -1412
9728, -3180,  3831, -1331
9737, -2931,  3955, -1288
9746, -2964,  3802, -1457
9757, -3157,  3436, -1481
9767, -3118,  3367, -1757
9776, -2727,  3531, -1967
9787, -3126,  3264, -1997
9797, -2844,  3132, -2416
9806, -1263,  3454, -2840
9817,  -652,  3885, -2681
9827,  -944,  3940, -2470
9836, -1310,  3911, -2386
9846, -1631,  3973, -2228
9857, -1830,  3922, -2135
9867, -2235,  3881, -2036
9876, -2364,  3782, -1855
9887, -2266,  3751, -1503
9897, -1463,  3867, -1110
9906, -1126,  4069,  -671
9916, -1252,  4230,  -307
9927, -1767,  4731,  -283
9937, -1566,  5230,  -478
9946, -1137,  5376,  -752
9957, -1184,  5292, -1137
9967, -1133,  4984, -1476
9976, -1476,  4749, -1656
9987, -1810,  4594, -1735
9997, -1816,  4351, -1705
10006, -1749,  4275, -1558
10016, -1758,  4633, -1364
10027, -1654,  5338, -1209
10036, -1547,  5916, -1037
10046, -1609,  6161,  -819
10057, -1878,  5948,  -570
10066, -1984,  5616,  -575
10076, -1668,  5467,  -623
10087, -1623,  5205,  -923
10097, -1669,  5044, -1260
10106, -1905,  4872, -1465
10117, -2079,  4795, -1603
10126, -2190,  4830, -1658
10136, -2385,  4842, -1638
10147, -2528,  4770, -1634
10156, -2552,  4724, -1659
10166, -2247,  4447, -1796
10177, -2083,  4329, -1784
10186, -1854,  4298, -1747
10196, -1647,  4348, -1746
10207, -1545,  4443, -1639
10217, -1680,  4722, -1353
10226, -1793,  4954, -1044
10236, -1895,  5105,  -905
10247, -1925,  5095,  -940
10256, -1968,  4963, -1069
10266, -1986,  4778, -1242
10277, -1978,  4547, -1387
10287, -2068,  4334, -1500
10296, -2140,  4156, -1568
10305, -2150,  4020, -1604
10316, -2112,  4006, -1627
10326, -2058,  4053, -1601
10335, -2022,  4116, -1539
10346, -2029,  4180, -1441
10356, -2076,  4266, -1327
10366, -2143,  4340, -1260
10377, -2173,  4399, -1261
10386, -2206,  4466, -1338
10396, -2184,  4457, -1446
10406, -1989,  4263, -1575
10416, -1996,  4223, -1600
10426, -2074,  4173, -1579
10435, -2071,  4096, -1589
10447, -1987,  4048, -1597
10456, -1930,  4080, -1567
10465, -1852,  4117, -1475
10476, -1842,  4053, -1400
10486, -1922,  3961, -1296
10496, -1964,  3953, -1179
10507, -1804,  3950, -1086
10516, -1555,  3927, -1034
10526, -1241,  3921, -1016
10535,  -830,  3967,  -996
10546,  -279,  4032,  -947
10556,   275,  4073,  -809
10565,   774,  4072,  -575
10576,  1272,  4061,  -298
10586,  1756,  4183,   -52
10595,  2286,  4362,    99
10606,  2932,  4455,   159
10616,  3536,  4613,   130
10625,  4010,  4947,   118
10636,  4507,  5158,   -51
10645,  4853,  5134,  -386
10656,  4915,  4843,  -631
10666,  4734,  4515,  -651
10675,  4476,  4156,  -675
10686,  3837,  3653,  -913
10695,  2756,  3354, -1338
10706,  1551,  3691, -2166
10716,   399,  4326, -3597
10725,  -740,  5058, -5390
10736, -2056,  5507, -7047
10745, -3797,  5216, -8213
10756, -5677,  4278, -8382
10766, -7060,  3176, -7558
10775, -7757,  2576, -6131
10786, -8791,  1727, -4400
10795, -9878,   995, -2717
10806,-10724,   914, -1352
10816,-11010,  1100,  -234
10825,-10239,  1503,    25
10836, -9450,  2096,  -497
10845, -8290,  2738, -1864
10856, -7298,  3271, -2902
10865, -6344,  3775, -3496
10875, -5665,  4129, -3702
10886, -5148,  4149, -3680
10895, -4769,  3984, -3460
10906, -4564,  3955, -3070
10915, -4267,  3934, -2620
10925, -4003,  3926, -2182
10936, -3824,  3950, -1853
10945, -3570,  3934, -1678
10956, -3290,  3921, -1590
10965, -3007,  3955, -1479
10976, -2799,  4017, -1327
10985, -2641,  4019, -1167
10995, -2543,  3992, -1027
11006, -2415,  3948,  -975
11015, -2401,  3784, -1062
11025, -2502,  3549, -1195
11036, -2570,  3344, -1339
11045, -2579,  3304, -1499
11056, -2527,  3381, -1669
11065, -2421,  3371, -1808
11075, -2363,  3348, -1860
11086, -2330,  3328, -1827
11095, -2317,  3309, -1730
11106, -2386,  3337, -1618
11115, -2503,  3385, -1519
11126, -2568,  3425, -1428
11135, -2594,  3442, -1417
11145, -2588,  3467, -1488
11156, -2479,  3506, -1597
11165, -2355,  3569, -1753
11176, -2269,  3631, -1924
11185, -2181,  3667, -2087
11195, -2133,  3639, -2161
11206, -2144,  3582, -2148
11215, -2257,  3534, -2061
11226, -2374,  3542, -1939
11235, -2402,  3585, -1841
11244, -2397,  3696, -1822
11255, -2303,  3819, -1890
11265, -2137,  3874, -1999
11276, -1965,  3924, -2126
11285, -1870,  3943, -2191
11294, -1861,  3886, -2211
11305, -1920,  3770, -2169
11315, -1995,  3634, -2115
11326, -2155,  3545, -2039
11335, -2325,  3525, -1965
11346, -2464,  3514, -1950
11355, -2540,  3528, -1984
11365, -2547,  3593, -2015
11376, -2490,  3623, -2039
11385, -2412,  3577, -2050
11394, -2356,  3492, -2030
11405, -2258,  3407, -1976
11414, -2236,  3391, -1839
11425, -2347,  3453, -1672
11435, -2555,  3553, -1547
11446, -2643,  3597, -1524
11455, -2613,  3579, -1624
11464, -2558,  3565, -1749
11476, -2447,  3561, -1864
11485, -2353,  3587, -1953
11494, -2334,  3571, -2002
11505, -2377,  3457, -2029
11515, -2453,  3326, -2042
11526, -2496,  3246, -2077
11535, -2506,  3215, -2082
11544, -2562,  3236, -2064
11555, -2614,  3270, -2008
11564, -2662,  3276, -1921
11575, -2679,  3258, -1882
11585, -2598,  3252, -1839
11594, -2483,  3302, -1826
11605, -2361,  3329, -1885
11614, -2311,  3293, -1938
11625, -2510,  3257, -1901
11635, -2624,  3078, -1893
11644, -2562,  2852, -1946
11655, -2555,  2649, -1975
11665, -2824,  2514, -2056
11674, -3039,  2353, -2228
11685, -3272,  2291, -2194
11695, -3399,  2143, -2082
11706, -3827,  2049, -2133
11715, -3992,  1986, -2269
11724, -3951,  1877, -2262
11735, -3849,  2225, -2377
11745, -3393,  3115, -2544
11754, -2930,  4149, -2500
11765, -2594,  4828, -2326
11774, -2248,  5381, -2317
11785, -1596,  5835, -2293
11795,  -933,  5837, -2253
11804, -1600,  5464, -2351
11815, -1498,  5459, -2753
11825,  -821,  4129, -2542
11834, -1479,  3696, -2555
11845,  1036,  5008, -2792
11854,   408,  6316, -2514
11865,  -486,  6122, -1777
11875,  -852,  5823, -1323
11884, -1330,  5764, -1010
11895, -1637,  5777,  -833
11905, -1627,  5499,  -751
11914, -1506,  4697,  -721
11925, -1436,  4253,  -850
11935, -1352,  4268, -1018
11944, -1372,  4577, -1172
11955, -1207,  5045, -1523
11965, -1536,  5516, -2194
11974, -1855,  5858, -2641
11985, -1623,  6176, -2958
11995, -1204,  6087, -3197
12004, -1133,  5550, -3258
12015, -1230,  5039, -3222
12024, -1207,  4885, -3040
12034, -1278,  4930, -2665
12045, -1390,  4952, -2120
12054, -1620,  5010, -1768
12064, -1751,  5056, -1425
12075, -1561,  4879, -1068
12084, -1424,  4828,  -943
12095, -1375,  4889,  -867
12104, -1448,  5119,  -914
12114, -1589,  5350, -1064
12125, -1621,  5490, -1222
12134, -1571,  5574, -1307
12145, -1618,  5738, -1356
12155, -1824,  5921, -1410
12164, -2039,  5991, -1504
12175, -2139,  5866, -1583
12184, -2137,  5581, -1684
12194, -2051,  5283, -1774
12205, -1933,  5201, -1846
12214, -2045,  5484, -2023
12223, -2122,  5595, -2203
12234, -2046,  5502, -2273
12244, -2117,  5283, -2260
12255, -2313,  5044, -2406
12264, -2387,  4926, -2461
12275, -2388,  4935, -2241
12284, -2516,  4909, -1703
12294, -2593,  4830, -1072
12305, -2654,  4648,  -583
12314, -2615,  4543,  -406
12325, -2516,  4573,  -590
12334, -2097,  4673, -1058
12343, -1476,  4779, -1569
12354,  -928,  5099, -1891
12364,  -634,  5602, -1827
12375,  -609,  5731, -1805
12384,  -854,  5582, -1848
12393, -1269,  5279, -1733
12404, -1575,  4888, -1615
12413, -1600,  4464, -1734
12424, -1547,  4256, -2010
12434, -1545,  4275, -2304
12445, -1597,  4383, -2576
12454, -1719,  4498, -2671
12464, -1921,  4660, -2561
12475, -2016,  4749, -2445
12484, -1990,  4737, -2348
12493, -2015,  4692, -2208
12504, -2092,  4589, -2047
12514, -2139,  4446, -1957
12525, -2166,  4315, -1970
12534, -2199,  4221, -2018
12543, -2191,  4159, -2038
12554, -2187,  4194, -2006
12564, -2146,  4282, -1904
12575, -2009,  4377, -1723
12584, -1724,  4443, -1489
12593, -1291,  4409, -1309
12604,  -692,  4185, -1235
12614,     5,  3796, -1165
12625,   681,  3337, -1001
12634,  1314,  2980,  -754
12643,  1939,  2901,  -449
12654,  2561,  3060,  -220
12663,  3098,  3353,  -118
12674,  3592,  3561,   -94
12684,  3919,  3670,  -123
12693,  4114,  3852,  -295
12704,  4198,  4026,  -732
12713,  4068,  4221, -1349
12724,  3515,  4649, -1959
12734,  2654,  5172, -2361
12743,  1702,  5713, -2541
12754,   600,  6228, -2518
12763,  -576,  6606, -2386
12774, -1855,  6791, -2313
12783, -3117,  6646, -2403
12793, -4245,  6090, -2676
12804, -5423,  5453, -2957
12813, -6552,  4789, -3322
12824, -7302,  4196, -3716
12834, -7836,  3733, -3847
12843, -8272,  3361, -3689
12854, -8501,  3072, -3361
12863, -8548,  2929, -2965
12874, -8352,  2876, -2684
12883, -7964,  2942, -2571
12894, -7529,  3131, -2483
12904, -7001,  3470, -2368
12913, -6495,  3837, -2344
12924, -5993,  4051, -2408
12933, -5513,  4154, -2480
12944, -5165,  4178, -2479
12953, -4765,  4167, -2407
12963, -4393,  4130, -2246
12974, -4106,  4048, -1979
12983, -3877,  3999, -1682
12994, -3656,  3999, -1436
13003, -3413,  4035, -1271
13013, -3107,  4104, -1176
13024, -2889,  4160, -1185
13033, -2746,  4146, -1237
13044, -2658,  4093, -1288
13053, -2633,  4082, -1384
13064, -2602,  4085, -1475
13073, -2597,  4094, -1573
13083, -2612,  4046, -1659
13094, -2647,  3950, -1721
13103, -2696,  3850, -1743
13114, -2698,  3736, -1770
13123, -2699,  3602, -1795
13133, -2706,  3546, -1789
13144, -2715,  3499, -1852
13153, -2679,  3476, -1924
13164, -2624,  3548, -1974
13173, -2596,  3704, -1935
13184, -2591,  3887, -1845
13193, -2579,  3997, -1726
13203, -2567,  4018, -1596
13214, -2534,  3965, -1495
13223, -2494,  3885, -1442
13234, -2446,  3798, -1443
13243, -2446,  3697, -1482
13252, -2457,  3652, -1530
13263, -2480,  3664, -1563
13273, -2512,  3718, -1557
13284, -2516,  3782, -1547
13293, -2513,  3826, -1535
13302, -2514,  3882, -1528
13313, -2535,  3891, -1498
13323, -2572,  3894, -1449
13334, -2578,  3855, -1430
13343, -2575,  3827, -1457
13354, -2594,  3812, -1503
13363, -2623,  3780, -1552
13372, -2638,  3721, -1597
13383, -2666,  3686, -1628
13393, -2698,  3677, -1677
13404, -2709,  3665, -1730
13413, -2723,  3639, -1778
13424, -2738,  3632, -1829
13433, -2778,  3653, -1869
13442, -2796,  3666, -1867
13453, -2810,  3693, -1849
13463, -2833,  3726, -1808
13474, -2856,  3752, -1761
13483, -2857,  3757, -1747
13492, -2850,  3754, -1756
13503, -2865,  3727, -1757
13513, -2897,  3716, -1732
13524, -2958,  3695, -1690
13533, -2992,  3648, -1661
13542, -2991,  3620, -1625
13553, -2991,  3614, -1592
13562, -3002,  3583, -1565
13573, -3003,  3546, -1593
13583, -3014,  3521, -1629
13594, -3007,  3496, -1673
13603, -3010,  3481, -1690
13612, -3017,  3498, -1711
13623, -3006,  3504, -1737
13632, -2994,  3507, -1766
13643, -2994,  3502, -1784
13653, -3004,  3509, -1778
13664, -3014,  3531, -1778
13673, -2991,  3519, -1789
13682, -3003,  3491, -1779
13693, -3019,  3458, -1749
13702, -3018,  3461, -1722
13713, -3034,  3456, -1708
13723, -3055,  3441, -1690
13732, -3043,  3427, -1699
13743, -3054,  3402, -1684
13752, -3092,  3399, -1662
13763, -3105,  3399, -1659
13773, -3107,  3415, -1668
13782, -3096,  3465, -1664
13793, -3091,  3518, -1665
13802, -3074,  3509, -1673
13813, -3079,  3500, -1685
13822, -3088,  3525, -1689
13832, -3094,  3537, -1699
13843, -3098,  3534, -1705
13852, -3087,  3536, -1705
13863, -3087,  3558, -1695
13872, -3094,  3577, -1693
13883, -3095,  3581, -1703
13893, -3097,  3545, -1713
13902, -3106,  3495, -1729
13913, -3114,  3437, -1750
13922, -3113,  3357, -1795
13933, -3125,  3311, -1824
13942, -3148,  3309, -1830
13952, -3152,  3291, -1825
13963, -3139,  3302, -1812
13972, -3117,  3332, -1784
13983, -3104,  3379, -1752
13992, -3083,  3415, -1731
14003, -3052,  3433, -1712
14012, -3025,  3458, -1712
14022, -3025,  3445, -1721
14033, -3048,  3420, -1721
14042, -3088,  3366, -1717
14052, -3104,  3330, -1725
14063, -3109,  3332, -1732
14072, -3123,  3368, -1734
14083, -3142,  3408, -1721
14092, -3159,  3425, -1704
14103, -3184,  3414, -1656
14112, -3202,  3400, -1630
14122, -3206,  3379, -1621
14133, -3218,  3365, -1647
14142, -3219,  3311, -1693
14153, -3254,  3266, -1730
14162, -3299,  3229, -1755
14173, -3388,  3214, -1768
14182, -3440,  3191, -1789
14192, -3454,  3158, -1814
14203, -3460,  3145, -1812
14212, -3474,  3139, -1798
14223, -3489,  3135, -1757
14232, -3492,  3129, -1723
14241, -3473,  3098, -1709
14252, -3455,  3066, -1719
14262, -3465,  3016, -1701
14273, -3490,  2984, -1666
14282, -3505,  2983, -1626
14293, -3481,  2987, -1604
14302, -3428,  3001, -1605
14312, -3392,  3027, -1618
14322, -3392,  3088, -1624
14332, -3355,  3153, -1662
14343, -3319,  3215, -1675
14352, -3256,  3256, -1683
14361, -3275,  3320, -1629
14372, -3263,  3367, -1618
14382, -3219,  3379, -1643
14392, -3171,  3394, -1689
14402, -3166,  3389, -1695
14413, -3195,  3381, -1665
14422, -3209,  3369, -1638
14431, -3193,  3354, -1621
14442, -3168,  3370, -1627
14452, -3073,  3387, -1670
14463, -2939,  3381, -1913
14472, -3084,  3623, -1890
14481, -2974,  3617, -1797
14492, -3038,  3552, -1667
14501, -3140,  3473, -1615
14512, -3233,  3375, -1648
14522, -3285,  3353, -1700
14533, -3272,  3381, -1706
14542, -3255,  3405, -1689
14551, -3262,  3363, -1658
14562, -3304,  3345, -1675
14572, -3502,  3383, -1645
14582, -3595,  3507, -1621
14592, -3616,  3683, -1676
14601, -3547,  3727, -1758
14612, -3416,  3532, -1774
14621, -3299,  3548, -1933
14632, -3150,  4077, -2374
14642, -3033,  4227, -2574
14652, -3142,  4051, -2649
14662, -3520,  3622, -2570
14671, -3778,  3390, -2378
14682, -4024,  3569, -2179
14691, -4342,  4011, -1922
14702, -4788,  3999, -1580
14711, -5156,  3554, -1113
14722, -5599,  3114,  -702
14732, -6037,  3006,  -402
14741, -6100,  3087,  -225
14752, -5945,  3234,  -225
14761, -5700,  3392,  -436
14772, -5412,  3474,  -837
14782, -5161,  3534, -1274
14791, -5004,  3448, -1654
14802, -4883,  3138, -1915
14811, -4644,  2837, -2030
14822, -4465,  2831, -1963
14831, -4499,  3175, -1793
14841, -4831,  3447, -1636
14852, -5302,  3661, -1502
14861, -5573,  3762, -1445
14872, -5566,  3767, -1464
14881, -5434,  3723, -1556
14892, -5257,  3534, -1622
14901, -5161,  3265, -1685
14911, -5058,  3043, -1721
14922, -4944,  2869, -1737
14931, -4806,  2842, -1713
14942, -4749,  3059, -1702
14951, -4783,  3343, -1711
14961, -4839,  3444, -1804
14972, -4549,  3379, -2331
14981, -4316,  3115, -2498
14992, -4260,  2967, -2791
15001, -4228,  3013, -2906
15012, -4552,  3305, -2631
15021, -4932,  3408, -2248
15031, -5203,  3497, -1917
15042, -5360,  3531, -1666
15051, -5433,  3759, -1610
15062, -5321,  3860, -1758
15071, -4974,  3537, -2073
15082, -4657,  3194, -2352
15091, -3370,  3566, -2731
15101, -3800,  2914, -2783
15112, -4444,  3941, -2102
15121, -4653,  5633, -1200
15132, -4762,  5727, -1017
15141, -5108,  5142, -1064
15150, -5279,  4829, -1093
15161, -5151,  4996, -1151
15171, -5073,  5398, -1180
15182, -5144,  5521, -1028
15191, -5345,  5461,  -899
15202, -5510,  5564,  -966
15211, -5425,  5613, -1282
15221, -5238,  5527, -1625
15231, -4911,  5371, -2041
15241, -4574,  5147, -2373
15252, -4613,  5085, -2529
15261, -5174,  5478, -2592
15270, -5718,  6206, -2796
15281, -5903,  6736, -3156
15291, -5925,  6837, -3124
15301, -5921,  6173, -2751
15311, -5914,  5543, -2489
15322, -5941,  5308, -2510
15331, -6137,  5365, -2699
15340, -5925,  5269, -2866
15351, -5334,  4867, -2882
15361, -4853,  4425, -2704
15372, -4649,  4212, -2251
15381, -4800,  4397, -1813
15390, -5321,  4769, -1615
15401, -6001,  5189, -1548
15410, -6641,  5532, -1524
15421, -7008,  5801, -1699
15431, -6879,  5828, -2061
15442, -6529,  5819, -2433
15451, -5975,  5809, -2819
15460, -5501,  5745, -3087
15471, -5413,  5528, -3091
15481, -5586,  5422, -2935
15491, -5747,  5581, -2691
15501, -5894,  5842, -2480
15510, -5779,  6030, -2412
15521, -5504,  6158, -2386
15530, -5033,  6353, -2433
15541, -4497,  6638, -2485
15551, -4269,  6883, -2496
15562, -4330,  6808, -2447
15571, -4508,  6327, -2326
15580, -4603,  5795, -2050
15591, -4679,  5423, -1706
15601, -4577,  5387, -1457
15612, -4399,  5723, -1346
15621, -4297,  6202, -1384
15630, -4213,  6750, -1552
15641, -4146,  7271, -1782
15650, -4197,  7628, -1990
15661, -4430,  7678, -2114
15671, -4851,  7312, -2095
15680, -5176,  6806, -1991
15691, -5194,  6394, -1905
15700, -4956,  6163, -1848
15711, -4595,  6152, -1852
15720, -4249,  6298, -1853
15730, -3873,  6527, -1907
15741, -3534,  6790, -2040
15750, -3380,  6842, -2193
15761, -3414,  6650, -2277
15770, -3590,  6236, -2253
15781, -3863,  5717, -2116
15791, -4057,  5364, -1870
15800, -4135,  5243, -1595
15811, -4150,  5280, -1351
15820, -4167,  5395, -1188
15831, -4188,  5547, -1113
15841, -4138,  5710, -1149
15850, -4112,  5827, -1282
15861, -4098,  5942, -1486
15870, -4099,  6079, -1720
15881, -4139,  6239, -1957
15890, -4345,  6313, -2100
15901, -4583,  6297, -2184
15911, -4703,  6169, -2273
15920, -4690,  5992, -2332
15931, -4590,  5924, -2358
15940, -4439,  5873, -2363
15951, -4318,  5832, -2375
15960, -4297,  5788, -2355
15970, -4364,  5663, -2462
15981, -4209,  5494, -2860
15990, -4101,  5014, -2790
16001, -4059,  4706, -2892
16010, -3927,  4812, -2946
16021, -4012,  5251, -2810
16030, -4447,  5774, -2159
16040, -4775,  5807, -1892
16051, -4744,  5671, -1986
16060, -4557,  5621, -2101
16070, -4488,  5553, -1891
16081, -4749,  5610, -1457
16090, -4872,  5439, -1236
16101, -4855,  5411, -1210
16110, -4716,  5301, -1270
16120, -4700,  5324, -1417
16131, -4616,  5499, -1687
16140, -4478,  5634, -1933
16150, -4358,  5729, -2050
16161, -4276,  5771, -2024
16170, -4227,  5774, -1868
16181, -4088,  5742, -1687
16190, -3767,  5700, -1579
16199, -3038,  5707, -1635
16210, -2545,  5885, -1684
16220, -1981,  6069, -1655
16231, -1421,  6205, -1565
16240,  -721,  6257, -1449
16251,   474,  6143, -1414
16260,  1806,  5992, -1388
16269,  3073,  5884, -1254
16280,  4152,  5783, -1074
16290,  5000,  5546,  -975
16301,  5689,  5313, -1114
16310,  6025,  5058, -1548
16319,  6042,  4621, -2109
16330,  5756,  4105, -2708
16339,  4996,  3614, -3342
16350,  3630,  3277, -3943
16360,  1655,  3253, -4516
16371,  -861,  3571, -5053
16380, -3779,  4356, -5460
16389, -6796,  5639, -5699
16400, -9533,  7195, -5659
16410,-11635,  8564, -4998
16421,-13214,  9375, -3751
16430,-14224,  9588, -2221
16439,-14264,  9346,  -777
16450,-13614,  8773,   306
16459,-12675,  7961,   961
16470,-11534,  7002,  1280
16480,-10348,  6115,  1314
16491, -9193,  5389,  1034
16500, -8155,  4924,   565
16509, -7393,  4745,    28
16520, -6803,  4711,  -488
16529, -6336,  4757,  -863
16540, -5876,  4818, -1094
16550, -5452,  4884, -1213
16560, -5078,  4988, -1304
16571, -4792,  5095, -1448
16580, -4590,  5179, -1637
16589, -4469,  5251, -1914
16600, -4392,  5310, -2251
16610, -4410,  5371, -2584
16619, -4502,  5399, -2816
16630, -4581,  5425, -2926
16639, -4655,  5444, -2905
16650, -4672,  5423, -2768
16660, -4641,  5355, -2578
16669, -4551,  5242, -2381
16680, -4419,  5091, -2227
16689, -4271,  4955, -2135
16700, -4093,  4827, -2037
16710, -3955,  4659, -1911
16719, -3828,  4493, -1766
16730, -3745,  4383, -1644
16739, -3719,  4330, -1547
16750, -3696,  4310, -1506
16760, -3717,  4356, -1527
16769, -3763,  4481, -1617
16780, -3809,  4685, -1732
16789, -3864,  4890, -1854
16800, -3912,  5056, -1970
16810, -3968,  5145, -2039
16819, -3989,  5156, -2092
16830, -3986,  5128, -2114
16839, -3952,  5050, -2098
16850, -3863,  4946, -2078
16860, -3764,  4849, -2061
16869, -3723,  4772, -2063
16880, -3718,  4745, -2107
16889, -3719,  4746, -2184
16900, -3723,  4734, -2252
16909, -3719,  4692, -2280
16919, -3728,  4646, -2249
16930, -3735,  4563, -2139
16939, -3759,  4486, -2009
16950, -3756,  4429, -1910
16959, -3750,  4394, -1842
16969, -3748,  4405, -1817
16980, -3734,  4449, -1836
16989, -3733,  4457, -1844
17000, -3760,  4457, -1833
17009, -3794,  4463, -1839
17019, -3810,  4433, -1888
17029, -3802,  4370, -1938
17039, -3773,  4303, -1986
17050, -3753,  4259, -1992
17059, -3791,  4261, -1953
17070, -3811,  4249, -1867
17079, -3818,  4262, -1812
17089, -3839,  4294, -1827
17100, -3836,  4337, -1879
17109, -3853,  4401, -1946
17119, -3877,  4444, -1967
17130, -3903,  4446, -1951
17139, -3890,  4408, -1932
17150, -3840,  4333, -1923
17159, -3802,  4260, -1920
17168, -3789,  4223, -1918
17180, -3788,  4221, -1916
17189, -3812,  4242, -1901
17200, -3864,  4297, -1843
17209, -3917,  4369, -1760
17219, -3935,  4407, -1698
17230, -3922,  4409, -1673
17239, -3875,  4375, -1687
17250, -3842,  4352, -1742
17259, -3798,  4310, -1785
17269, -3783,  4251, -1779
17278, -3792,  4195, -1746
17289, -3780,  4179, -1722
17299, -3785,  4190, -1706
17310, -3810,  4202, -1710
17319, -3812,  4211, -1747
17329, -3789,  4222, -1810
17339, -3772,  4214, -1838
17349, -3754,  4179, -1831
17360, -3742,  4132, -1798
17369, -3731,  4104, -1763
17379, -3730,  4111, -1773
17390, -3746,  4146, -1797
17399, -3787,  4191, -1853
17409, -3818,  4206, -1900
17419, -3833,  4186, -1924
17429, -3824,  4150, -1929
17440, -3811,  4104, -1907
17449, -3810,  4081, -1871
17458, -3836,  4094, -1837
17469, -3858,  4103, -1797
17478, -3875,  4107, -1741
17489, -3872,  4100, -1682
17499, -3861,  4102, -1641
17508, -3859,  4121, -1608
17519, -3884,  4149, -1594
17528, -3923,  4177, -1591
17539, -3948,  4202, -1611
17549, -3984,  4223, -1638
17558, -3988,  4208, -1645
17569, -3989,  4134, -1605
17579, -3992,  4030, -1542
17588, -3953,  3961, -1517
17599, -3894,  3927, -1527
17608, -3844,  3888, -1538
17619, -3809,  3815, -1550
17629, -3799,  3799, -1606
17638, -3810,  3893, -1695
17649, -3847,  4015, -1787
17658, -3894,  4096, -1848
17669, -3936,  4110, -1871
17679, -3937,  4039, -1853
17688, -3934,  3951, -1800
17699, -3953,  3902, -1747
17709, -3961,  3885, -1719
17718, -3941,  3880, -1718
17729, -3894,  3879, -1708
17738, -3891,  3928, -1670
17749, -3988,  4021, -1618
17759, -4093,  4059, -1553
17768, -4140,  4002, -1505
17779, -4197,  3811, -1504
17789, -4253,  3668, -1509
17798, -4259,  3721, -1515
17809, -4162,  3803, -1568
17818, -3967,  3809, -1632
17829, -3799,  3755, -1683
17839, -3755,  3691, -1735
17848, -3772,  3592, -1763
17859, -3781,  3448, -1748
17868, -3769,  3351, -1678
17879, -3741,  3385, -1630
17889, -3720,  3461, -1642
17898, -3721,  3397, -1658
17909, -3772,  3269, -1656
17919, -3835,  3218, -1575
17928, -3896,  3386, -1437
17939, -3953,  3723, -1342
17948, -4024,  3993, -1243
17959, -4042,  4019, -1071
17968, -3978,  3846,  -805
17978, -3893,  3745,  -655
17989, -3778,  3727,  -751
17998, -3638,  3855,  -975
18008, -3675,  4306, -1273
18019, -3911,  4977, -1638
18028, -4220,  5571, -2071
18039, -4441,  6013, -2523
18048, -4385,  6157, -2933
18058, -4461,  6049, -3210
18068, -4683,  5782, -3266
18078, -4963,  5597, -3201
18089, -5278,  5631, -3130
18098, -5517,  5656, -3105
18107, -5678,  5600, -3128
18118, -5902,  5504, -3085
18128, -6172,  5309, -2849
18139, -6231,  5066, -2526
18148, -6026,  4880, -2309
18159, -5653,  4781, -2221
18168, -5273,  4842, -2218
18177, -5010,  4976, -2230
18189, -4910,  5022, -2225
18198, -4885,  5064, -2179
18207, -4915,  5145, -2140
18218, -5009,  5137, -2067
18228, -5137,  5112, -1985
18238, -5250,  5152, -1946
18248, -5261,  5145, -1907
18259, -5218,  5103, -1821
18268, -5162,  5021, -1747
18277, -5107,  4902, -1718
18289, -5034,  4732, -1715
18298, -4947,  4515, -1766
18307, -4864,  4309, -1833
18318, -4706,  4145, -1890
18328, -4450,  3969, -1868
18339, -3922,  3899, -1754
18348, -2907,  4056, -1564
18357, -1536,  4734, -1298
18368,  -344,  5867,  -971
18378,   191,  6878,  -644
18389,   408,  7448,  -295
18398,   647,  7617,   -86
18407,  1189,  7574,  -266
18418,  1751,  7376,  -761
18427,  1841,  7149, -1392
18438,  1415,  7017, -2058
18448,   533,  7042, -2811
18459,  -725,  7293, -3524
18468, -2106,  7416, -3996
18477, -3438,  7140, -4094
18488, -4671,  6339, -3704
18498, -5687,  5100, -3107
18509, -6569,  3664, -2492
18518, -7303,  2210, -1943
18527, -7838,   961, -1508
18538, -8147,    68, -1243
18547, -8326,  -524, -1121
18558, -8491,  -643, -1109
18568, -8650,  -342, -1184
18578, -8793,   111, -1255
18588, -8933,   659, -1352
18597, -8939,  1228, -1497
18608, -8744,  1743, -1659
18618, -8411,  2202, -1860
18627, -8018,  2579, -2050
18638, -7567,  2917, -2182
18647, -7129,  3186, -2272
18658, -6742,  3414, -2335
18668, -6416,  3639, -2359
18677, -6080,  3816, -2367
18688, -5770,  4004, -2382
18697, -5549,  4255, -2416
18708, -5384,  4528, -2469
18717, -5293,  4752, -2505
18728, -5208,  4929, -2467
18738, -5095,  5047, -2315
18747, -4971,  5056, -2115
18758, -4833,  5082, -1891
18767, -4717,  5124, -1671
18778, -4680,  5113, -1469
18787, -4667,  5035, -1323
18798, -4635,  4917, -1238
18808, -4598,  4795, -1246
18817, -4580,  4662, -1325
18828, -4618,  4555, -1446
18837, -4666,  4481, -1611
18848, -4693,  4421, -1783
18857, -4717,  4373, -1910
18868, -4724,  4330, -1971
18878, -4712,  4269, -1952
18887, -4696,  4220, -1880
18898, -4685,  4216, -1833
18907, -4633,  4207, -1827
18918, -4572,  4186, -1841
18927, -4538,  4186, -1870
18938, -4501,  4141, -1884
18948, -4449,  4084, -1906
18957, -4422,  4076, -1938
18968, -4412,  4088, -1970
18977, -4413,  4089, -1992
18987, -4399,  4115, -1989
18998, -4398,  4146, -1946
19007, -4400,  4154, -1870
19017, -4374,  4124, -1774
19028, -4341,  4057, -1705
19037, -4299,  3997, -1674
19047, -4273,  3954, -1651
19058, -4293,  3930, -1629
19067, -4303,  3895, -1630
19077, -4319,  3836, -1628
19088, -4347,  3805, -1645
19097, -4391,  3818, -1666
19107, -4442,  3846, -1669
19118, -4486,  3881, -1643
19127, -4498,  3903, -1618
19137, -4496,  3924, -1593
19148, -4480,  3916, -1549
19157, -4439,  3882, -1539
19167, -4407,  3892, -1570
19178, -4392,  3906, -1630
19187, -4371,  3905, -1718
19196, -4367,  3924, -1786
19208, -4380,  3936, -1834
19217, -4376,  3932, -1861
19226, -4382,  3948, -1870
19237, -4367,  3973, -1848
19247, -4325,  4015, -1825
19256, -4291,  4063, -1791
19267, -4276,  4063, -1777
19277, -4289,  4049, -1764
19286, -4283,  4046, -1738
19297, -4259,  3990, -1728
19307, -4242,  3946, -1717
19318, -4224,  3877, -1696
19327, -4207,  3783, -1668
19337, -4195,  3723, -1646
19348, -4197,  3694, -1617
19357, -4203,  3697, -1608
19367, -4189,  3675, -1620
19377, -4158,  3625, -1641
19387, -4149,  3598, -1674
19396, -4160,  3603, -1717
19407, -4178,  3618, -1730
19417, -4195,  3605, -1732
19426, -4200,  3583, -1745
19437, -4202,  3581, -1742
19447, -4217,  3588, -1721
19456, -4231,  3611, -1703
19467, -4241,  3622, -1695
19477, -4262,  3645, -1700
19488, -4306,  3674, -1708
19497, -4359,  3694, -1718
19506, -4391,  3711, -1739
19518, -4416,  3727, -1761
