time,accx,accy,accz
8, -3780,  6076,  6215
18, -3779,  6076,  6208
27, -3781,  6080,  6223
38, -3778,  6077,  6217
47, -3776,  6078,  6220
58, -3774,  6077,  6216
68, -3774,  6077,  6215
77, -3774,  6076,  6215
88, -3777,  6080,  6215
97, -3780,  6076,  6220
108, -3777,  6076,  6222
117, -3777,  6076,  6219
127, -3781,  6076,  6220
138, -3785,  6076,  6212
147, -3784,  6072,  6211
158, -3786,  6075,  6204
167, -3787,  6074,  6204
177, -3785,  6079,  6214
188, -3781,  6086,  6219
197, -3782,  6087,  6223
208, -3783,  6088,  6226
217, -3778,  6088,  6220
227, -3776,  6089,  6218
238, -3776,  6085,  6212
247, -3781,  6084,  6209
258, -3780,  6082,  6208
267, -3779,  6083,  6208
278, -3780,  6083,  6207
287, -3779,  6085,  6206
297, -3774,  6084,  6210
308, -3774,  6087,  6212
317, -3772,  6089,  6212
328, -3773,  6092,  6212
337, -3775,  6090,  6208
347, -3778,  6088,  6211
357, -3773,  6087,  6205
367, -3778,  6088,  6211
378, -3775,  6086,  6212
387, -3771,  6087,  6219
398, -3776,  6082,  6216
407, -3779,  6073,  6218
416, -3782,  6075,  6226
427, -3783,  6075,  6229
437, -3785,  6074,  6221
448, -3783,  6077,  6213
457, -3779,  6074,  6210
468, -3777,  6075,  6212
477, -3776,  6082,  6219
486, -3778,  6082,  6216
497, -3777,  6084,  6210
507, -3777,  6082,  6214
518, -3780,  6079,  6213
527, -3780,  6077,  6215
536, -3784,  6076,  6219
548, -3783,  6076,  6222
557, -3784,  6077,  6222
566, -3786,  6077,  6220
577, -3782,  6078,  6222
587, -3782,  6080,  6217
598, -3781,  6082,  6217
607, -3779,  6081,  6214
616, -3776,  6086,  6212
627, -3780,  6088,  6213
637, -3779,  6088,  6218
648, -3777,  6087,  6217
657, -3781,  6090,  6214
666, -3778,  6090,  6212
677, -3777,  6088,  6207
686, -3775,  6089,  6211
697, -3783,  6090,  6217
707, -3782,  6087,  6216
718, -3779,  6085,  6206
727, -3784,  6083,  6205
736, -3789,  6078,  6206
747, -3789,  6078,  6212
756, -3788,  6080,  6207
767, -3784,  6077,  6213
777, -3782,  6077,  6210
788, -3776,  6084,  6212
797, -3774,  6081,  6211
806, -3775,  6076,  6210
817, -3776,  6076,  6212
826, -3780,  6076,  6217
837, -3786,  6079,  6217
847, -3769,  6083,  6167
856, -3752,  6129,  6113
867, -3780,  6237,  6188
876, -3899,  6316,  6222
887, -3958,  6396,  6198
896, -3951,  6487,  6216
907, -3907,  6549,  6235
917, -3837,  6530,  6244
926, -3777,  6480,  6238
937, -3772,  6430,  6235
946, -3792,  6367,  6230
957, -3801,  6264,  6228
966, -3699,  6074,  6216
977, -3400,  5621,  6135
987, -3143,  5074,  6094
996, -3269,  4775,  6130
1007, -3653,  4709,  6178
1016, -3992,  4815,  6223
1027, -4133,  5055,  6242
1036, -4108,  5323,  6255
1046, -4029,  5508,  6258
1057, -3955,  5572,  6254
1066, -3876,  5550,  6274
1077, -3760,  5527,  6285
1086, -3649,  5557,  6261
1097, -3562,  5653,  6241
1106, -3534,  5744,  6226
1116, -3528,  5803,  6224
1127, -3526,  5856,  6234
1136, -3535,  5928,  6229
1147, -3567,  5960,  6239
1156, -3623,  5947,  6250
1166, -3673,  5945,  6262
1176, -3689,  5952,  6280
1186, -3673,  5979,  6289
1197, -3676,  5993,  6291
1206, -3648,  5944,  6270
1217, -3640,  5800,  6277
1226, -3700,  5631,  6289
1236, -3728,  5569,  6287
1247, -3772,  5633,  6324
1256, -3838,  5778,  6384
1267, -3816,  5942,  6434
1276, -3719,  6072,  6454
1287, -3590,  6152,  6443
1296, -3490,  6034,  6436
1306, -3412,  5803,  6443
1317, -3315,  5500,  6441
1326, -3211,  5027,  6457
1337, -3156,  4519,  6567
1346, -3238,  4138,  6818
1356, -3406,  3910,  7145
1367, -3543,  3850,  7433
1376, -3624,  3879,  7644
1387, -3644,  3935,  7764
1396, -3630,  3956,  7833
1405, -3593,  3928,  7851
1416, -3541,  3877,  7797
1426, -3489,  3807,  7695
1437, -3399,  3816,  7569
1446, -3310,  3867,  7381
1455, -3208,  3947,  7124
1466, -3081,  4036,  6820
1475, -2990,  4089,  6534
1486, -2915,  4152,  6317
1496, -2881,  4208,  6206
1507, -2914,  4297,  6192
1516, -2987,  4419,  6232
1525, -3091,  4493,  6295
1536, -3204,  4533,  6376
1546, -3308,  4565,  6413
1557, -3359,  4612,  6355
1566, -3377,  4673,  6194
1577, -3345,  4726,  5955
1586, -3312,  4744,  5711
1595, -3292,  4697,  5481
1606, -3272,  4653,  5269
1616, -3270,  4616,  5146
1625, -3342,  4618,  5130
1636, -3490,  4626,  5207
1645, -3702,  4648,  5415
1656, -3931,  4747,  5659
1666, -4123,  4871,  5802
1675, -4207,  4960,  5794
1686, -4206,  5009,  5703
1695, -4169,  5012,  5592
1706, -4126,  4928,  5517
1716, -4040,  4795,  5417
1725, -3979,  4697,  5378
1736, -3912,  4748,  5357
1745, -3865,  4888,  5326
1756, -3871,  4971,  5316
1765, -3857,  4991,  5351
1776, -3902,  4981,  5478
1786, -4018,  4994,  5675
1795, -4055,  5053,  5911
1806, -4067,  5152,  6050
1815, -4088,  5324,  6173
1826, -4138,  5455,  6321
1835, -4217,  5450,  6483
1846, -4290,  5371,  6628
1856, -4332,  5308,  6663
1865, -4279,  5281,  6502
1876, -4087,  5252,  6177
1885, -3852,  5179,  5788
1896, -3644,  5142,  5492
1905, -3546,  5248,  5359
1916, -3599,  5480,  5421
1926, -3739,  5747,  5647
1935, -3960,  5965,  5943
1946, -4176,  6100,  6248
1955, -4359,  6135,  6500
1966, -4472,  6119,  6615
1976, -4476,  6074,  6557
1985, -4413,  6091,  6347
1996, -4318,  6182,  6109
2005, -4259,  6325,  5945
2016, -4268,  6501,  5950
2026, -4350,  6701,  6095
2035, -4497,  6806,  6285
2046, -4622,  6815,  6481
2055, -4721,  6739,  6602
2066, -4739,  6599,  6648
2075, -4660,  6546,  6527
2085, -4529,  6563,  6236
2096, -4358,  6601,  5914
2105, -4218,  6598,  5667
2116, -4157,  6408,  5579
2125, -4164,  6176,  5758
2136, -4265,  6065,  6079
2145, -4346,  6084,  6380
2155, -4307,  6198,  6519
2166, -4203,  6291,  6459
2175, -4052,  6337,  6267
2186, -3860,  6296,  5980
2195, -3620,  6256,  5716
2205, -3433,  6350,  5622
2216, -3305,  6544,  5683
2225, -3205,  6729,  5853
2236, -3145,  6876,  6019
2245, -3150,  6884,  6118
2255, -3190,  6755,  6164
2266, -3290,  6510,  6165
2275, -3420,  6234,  6200
2286, -3577,  5953,  6275
2295, -3687,  5839,  6356
2305, -3693,  5895,  6334
2315, -3608,  5932,  6164
2325, -3452,  5843,  5982
2336, -3312,  5663,  5901
2345, -3303,  5464,  5983
2354, -3354,  5313,  6191
2365, -3468,  5192,  6458
2375, -3601,  5145,  6705
2386, -3728,  5154,  6906
2395, -3899,  5166,  7081
2406, -4046,  5197,  7259
2415, -4158,  5255,  7366
2425, -4204,  5331,  7354
2435, -4171,  5424,  7232
2445, -4097,  5532,  7033
2456, -4001,  5594,  6837
2465, -3918,  5690,  6701
2474, -3912,  5805,  6640
2485, -3905,  5933,  6621
2495, -3879,  6060,  6553
2506, -3850,  6121,  6428
2515, -3811,  6049,  6314
2524, -3806,  5900,  6249
2535, -3831,  5750,  6251
2544, -3862,  5658,  6271
2555, -3890,  5663,  6280
2565, -3881,  5744,  6219
2576, -3840,  5808,  6076
2585, -3780,  5858,  5915
2594, -3755,  5911,  5779
2605, -3754,  5987,  5688
2615, -3784,  6063,  5633
2626, -3813,  6168,  5650
2635, -3837,  6275,  5666
2644, -3831,  6332,  5633
2655, -3785,  6276,  5576
2665, -3746,  6104,  5582
2675, -3779,  5885,  5675
2685, -3849,  5707,  5820
2694, -3979,  5542,  5990
2705, -4152,  5405,  6247
2714, -4328,  5374,  6550
2725, -4480,  5478,  6783
2735, -4537,  5641,  6831
2744, -4474,  5783,  6651
2755, -4325,  5896,  6281
2764, -4098,  5969,  5775
2775, -3852,  5897,  5242
2785, -3645,  5649,  4845
2795, -3559,  5214,  4683
2805, -3657,  4627,  4889
2814, -3880,  4028,  5420
2825, -4140,  3684,  6036
2834, -4370,  3763,  6518
2845, -4516,  4132,  6810
2855, -4536,  4606,  6904
2864, -4475,  4937,  6845
2875, -4304,  5090,  6655
2884, -4106,  5158,  6384
2895, -3960,  5120,  6172
2904, -3946,  4951,  6172
2914, -4087,  4744,  6444
2925, -4315,  4598,  6834
2934, -4516,  4482,  7154
2945, -4620,  4352,  7351
2954, -4644,  4302,  7425
2965, -4596,  4375,  7401
2975, -4535,  4569,  7339
2984, -4447,  4835,  7262
2995, -4373,  5027,  7199
3004, -4343,  5069,  7221
3015, -4370,  4975,  7338
3024, -4408,  4806,  7488
3034, -4384,  4617,  7556
3045, -4326,  4379,  7517
3054, -4205,  4113,  7418
3065, -4037,  3878,  7277
3074, -3860,  3715,  7109
3084, -3685,  3703,  6944
3095, -3577,  3804,  6775
3104, -3571,  3875,  6716
3115, -3601,  3985,  6730
3124, -3675,  4108,  6728
3134, -3721,  4169,  6687
3145, -3710,  4179,  6589
3154, -3643,  4137,  6414
3165, -3531,  4058,  6186
3174, -3407,  4036,  5956
3185, -3319,  4059,  5743
3195, -3332,  4042,  5637
3204, -3447,  3998,  5703
3215, -3635,  3944,  5918
3224, -3818,  3928,  6151
3234, -3956,  3892,  6291
3245, -4002,  3844,  6303
3254, -3947,  3827,  6176
3265, -3827,  3851,  5968
3274, -3708,  3941,  5741
3283, -3648,  4013,  5585
3294, -3709,  4004,  5621
3304, -3890,  3983,  5864
3315, -4132,  3965,  6188
3324, -4348,  3937,  6475
3333, -4467,  3920,  6601
3344, -4442,  3876,  6505
3354, -4317,  3817,  6264
3365, -4160,  3760,  5966
3374, -3998,  3699,  5685
3383, -3930,  3606,  5552
3394, -4004,  3559,  5647
3404, -4159,  3565,  5878
3415, -4354,  3614,  6129
3424, -4502,  3739,  6310
3435, -4573,  3892,  6339
3444, -4538,  4048,  6248
3454, -4447,  4173,  6080
3465, -4327,  4309,  5868
3474, -4198,  4462,  5608
3483, -4127,  4553,  5406
3494, -4131,  4617,  5401
3504, -4236,  4664,  5554
3513, -4428,  4696,  5780
3524, -4575,  4723,  5982
3533, -4628,  4731,  6047
3544, -4564,  4701,  5961
3554, -4447,  4654,  5805
3564, -4363,  4555,  5675
3574, -4332,  4425,  5643
3585, -4394,  4352,  5732
3594, -4496,  4361,  5852
3605, -4605,  4441,  5948
3614, -4680,  4553,  6009
3624, -4717,  4631,  6032
3633, -4732,  4645,  6035
3644, -4708,  4615,  6027
3653, -4714,  4594,  6061
3664, -4736,  4625,  6138
3673, -4757,  4714,  6214
3684, -4763,  4862,  6218
3693, -4745,  4992,  6144
3704, -4716,  5101,  6052
3713, -4705,  5198,  5982
3724, -4712,  5295,  5966
3733, -4702,  5412,  5991
3744, -4710,  5506,  6020
3754, -4712,  5637,  6026
3763, -4708,  5782,  5997
3774, -4730,  5855,  5975
3783, -4773,  5877,  5985
3794, -4834,  5901,  6025
3804, -4905,  5923,  6050
3813, -4932,  5922,  6059
3824, -4954,  5876,  6041
3833, -4962,  5811,  6001
3844, -4944,  5751,  5926
3853, -4909,  5663,  5837
3863, -4851,  5590,  5748
3874, -4824,  5597,  5673
3883, -4812,  5690,  5600
3894, -4834,  5830,  5562
3903, -4870,  6010,  5598
3914, -4973,  6332,  5695
3924, -5083,  6729,  5814
3933, -5151,  7042,  5933
3944, -5185,  7248,  6029
3953, -5170,  7400,  6085
3964, -5150,  7460,  6114
3973, -5119,  7440,  6162
3983, -5081,  7349,  6206
3994, -5196,  7219,  6284
4003, -5215,  7087,  6345
4014, -5194,  6918,  6381
4023, -5159,  6730,  6410
4034, -5128,  6541,  6478
4043, -5090,  6368,  6556
4053, -5028,  6223,  6611
4064, -4951,  6117,  6644
4073, -4864,  6036,  6640
4084, -4751,  5950,  6597
4093, -4622,  5798,  6538
4104, -4503,  5639,  6480
4113, -4389,  5507,  6414
4123, -4279,  5401,  6318
4134, -4180,  5301,  6213
4143, -4090,  5211,  6124
4154, -4032,  5134,  6081
4163, -4020,  5079,  6102
4173, -4034,  5060,  6167
4184, -4070,  5061,  6232
4193, -4099,  5085,  6294
4204, -4112,  5132,  6315
4213, -4097,  5182,  6280
4223, -4059,  5215,  6203
4232, -4027,  5233,  6126
4243, -4011,  5253,  6088
4252, -4021,  5285,  6078
4264, -4050,  5326,  6106
4273, -4101,  5350,  6150
4282, -4154,  5361,  6188
4294, -4193,  5383,  6212
4303, -4221,  5413,  6195
4314, -4235,  5445,  6161
4323, -4241,  5473,  6145
4333, -4276,  5455,  6139
4344, -4303,  5409,  6139
4353, -4339,  5349,  6153
4362, -4388,  5314,  6197
4374, -4439,  5319,  6256
4383, -4454,  5338,  6284
4394, -4426,  5372,  6253
4403, -4387,  5398,  6188
4412, -4339,  5405,  6118
4423, -4313,  5406,  6078
4433, -4318,  5401,  6092
4444, -4344,  5437,  6157
4453, -4377,  5512,  6223
4462, -4399,  5551,  6258
4473, -4397,  5564,  6260
4483, -4394,  5555,  6247
4494, -4385,  5518,  6240
4503, -4380,  5450,  6229
4512, -4380,  5412,  6233
4523, -4381,  5393,  6244
4532, -4386,  5383,  6257
4544, -4403,  5386,  6280
4553, -4413,  5395,  6295
4562, -4398,  5413,  6284
4573, -4354,  5423,  6238
4582, -4308,  5435,  6172
4593, -4276,  5459,  6116
4603, -4252,  5493,  6072
4614, -4252,  5543,  6044
4623, -4263,  5583,  6035
4632, -4274,  5601,  6029
4643, -4277,  5600,  6016
4653, -4299,  5576,  6021
4664, -4326,  5542,  6033
4673, -4360,  5558,  6071
4682, -4411,  5627,  6148
4693, -4462,  5697,  6217
4702, -4468,  5747,  6251
4713, -4436,  5764,  6238
4723, -4395,  5750,  6204
4732, -4353,  5740,  6160
4743, -4351,  5756,  6135
4752, -4378,  5795,  6165
4763, -4429,  5836,  6232
4773, -4501,  5861,  6333
4782, -4559,  5873,  6430
4793, -4589,  5868,  6491
4802, -4579,  5867,  6503
4813, -4548,  5870,  6472
4823, -4498,  5884,  6413
4832, -4450,  5888,  6345
4843, -4413,  5856,  6262
4852, -4380,  5815,  6194
4863, -4350,  5781,  6125
4873, -4322,  5754,  6070
4882, -4308,  5732,  6064
4893, -4328,  5705,  6094
4902, -4359,  5688,  6137
4913, -4392,  5687,  6183
4922, -4416,  5712,  6204
4932, -4425,  5722,  6191
4943, -4408,  5728,  6174
4952, -4388,  5748,  6170
4963, -4359,  5752,  6169
4972, -4333,  5755,  6161
4983, -4318,  5776,  6152
4993, -4319,  5812,  6168
5002, -4337,  5872,  6194
5013, -4351,  5955,  6222
5022, -4375,  5976,  6248
5033, -4387,  5927,  6289
5042, -4394,  5866,  6332
5052, -4384,  5837,  6337
5063, -4342,  5851,  6289
5072, -4288,  5845,  6220
5083, -4250,  5783,  6165
5092, -4224,  5695,  6139
5103, -4198,  5598,  6139
5112, -4176,  5519,  6170
5122, -4138,  5464,  6197
5133, -4083,  5441,  6194
5142, -4018,  5421,  6174
5153, -3976,  5333,  6177
5162, -3945,  5226,  6215
5172, -3945,  5113,  6243
5183, -3948,  5025,  6264
5192, -3946,  5007,  6263
5203, -3930,  5032,  6230
5212, -3929,  5052,  6222
5222, -3959,  5064,  6267
5233, -3986,  5075,  6319
5242, -3946,  5106,  6331
5253, -4089,  5124,  6325
5262, -4194,  5146,  6326
5271, -4188,  5126,  6323
5282, -4171,  5096,  6312
5292, -4144,  5139,  6274
5303, -4111,  5235,  6232
5312, -4095,  5315,  6207
5323, -4092,  5378,  6197
5332, -4095,  5455,  6194
5341, -4092,  5538,  6229
5353, -4077,  5577,  6265
5362, -4051,  5533,  6262
5373, -4004,  5425,  6213
5382, -3964,  5332,  6143
5391, -3945,  5293,  6103
5402, -3967,  5324,  6114
5412, -3993,  5399,  6159
5423, -4018,  5471,  6195
5432, -4017,  5528,  6189
5441, -3984,  5550,  6121
5452, -3939,  5530,  6032
5461, -3929,  5505,  6008
5472, -3952,  5501,  6028
5482, -3985,  5515,  6067
5493, -4019,  5552,  6119
5502, -4041,  5578,  6170
5511, -4070,  5598,  6234
5522, -4114,  5641,  6304
5532, -4143,  5706,  6333
5542, -4154,  5755,  6329
5552, -4154,  5750,  6331
5561, -4139,  5722,  6353
5572, -4119,  5689,  6361
5582, -4086,  5654,  6344
5593, -4039,  5612,  6301
5602, -3993,  5558,  6244
5612, -3941,  5481,  6185
5621, -3883,  5419,  6128
5632, -3828,  5371,  6090
5641, -3786,  5291,  6065
5652, -3764,  5149,  6080
5662, -3767,  5009,  6130
5671, -3786,  4917,  6179
5682, -3795,  4881,  6219
5691, -3807,  4872,  6248
5702, -3817,  4865,  6275
5712, -3833,  4854,  6297
5723, -3854,  4853,  6324
5732, -3876,  4861,  6363
5741, -3883,  4889,  6386
5752, -3879,  4930,  6378
5761, -3887,  4987,  6368
5772, -3909,  5065,  6363
5782, -3929,  5135,  6358
5791, -3945,  5194,  6362
5802, -3949,  5243,  6348
5811, -3964,  5263,  6346
5821, -3975,  5295,  6339
5832, -3977,  5348,  6293
5841, -3964,  5367,  6229
5852, -3960,  5363,  6174
5862, -3966,  5357,  6157
5871, -3983,  5355,  6170
5882, -3999,  5377,  6182
5891, -3987,  5421,  6142
5902, -3960,  5456,  6077
5911, -3940,  5463,  6050
5922, -3954,  5499,  6092
5932, -4035,  5549,  6182
5941, -4105,  5592,  6281
5952, -4129,  5628,  6326
5961, -4102,  5650,  6321
5972, -4086,  5658,  6320
5981, -4103,  5674,  6317
5991, -4112,  5655,  6291
6002, -4110,  5587,  6259
6011, -4085,  5553,  6222
6022, -4062,  5523,  6190
6031, -4047,  5511,  6184
6042, -4055,  5518,  6230
6051, -4084,  5488,  6305
6061, -4124,  5484,  6382
6072, -4142,  5495,  6386
6081, -4128,  5482,  6342
6092, -4089,  5452,  6267
6101, -4034,  5410,  6175
6111, -3988,  5406,  6104
6122, -3965,  5436,  6077
6131, -3960,  5472,  6089
6142, -3982,  5508,  6127
6151, -4021,  5541,  6170
6161, -4073,  5518,  6190
6172, -4125,  5450,  6228
6181, -4165,  5417,  6304
6192, -4197,  5465,  6379
6201, -4229,  5561,  6410
6211, -4240,  5615,  6411
6222, -4271,  5553,  6424
6231, -4319,  5389,  6480
6242, -4393,  5168,  6528
6251, -4420,  4781,  6583
6261, -4419,  4256,  6649
6272, -4396,  3691,  6730
6281, -4346,  3097,  6800
6292, -4320,  2556,  6862
6301, -4295,  2213,  6845
6310, -4193,  2063,  6759
6321, -4038,  2030,  6665
6331, -3890,  2034,  6647
6340, -3797,  1975,  6646
6351, -3642,  1805,  6569
6361, -3378,  1596,  6369
6372, -3081,  1445,  6025
6381, -2772,  1363,  5596
6390, -2457,  1296,  5209
6401, -2235,  1264,  4962
6410, -2147,  1360,  4899
6421, -2176,  1612,  4981
6431, -2281,  1891,  5215
6440, -2443,  2165,  5508
6451, -2612,  2401,  5732
6461, -2755,  2574,  5824
6472, -2853,  2700,  5787
6481, -2918,  2858,  5704
6490, -2912,  3067,  5668
6501, -2929,  3285,  5728
6511, -2955,  3542,  5842
6520, -3017,  3697,  5963
6531, -3119,  3678,  6045
6541, -3193,  3593,  6059
6552, -3298,  3546,  5994
6561, -3400,  3561,  5890
6570, -3434,  3648,  5794
6581, -3432,  3810,  5702
6591, -3399,  4004,  5636
6601, -3341,  4161,  5671
6611, -3304,  4383,  5783
6620, -3361,  4688,  5945
6631, -3485,  4920,  6186
6640, -3651,  5105,  6399
6651, -3772,  5230,  6486
6661, -3782,  5288,  6424
6670, -3756,  5321,  6299
6681, -3718,  5375,  6216
6691, -3689,  5395,  6198
6701, -3702,  5412,  6234
6711, -3728,  5444,  6266
6720, -3747,  5428,  6295
6731, -3757,  5415,  6286
6741, -3720,  5392,  6227
6750, -3647,  5375,  6139
6761, -3628,  5411,  6045
6770, -3600,  5485,  5997
6781, -3562,  5540,  6047
6791, -3563,  5534,  6164
6801, -3584,  5474,  6311
6811, -3639,  5404,  6455
6820, -3665,  5393,  6513
6831, -3657,  5427,  6472
6841, -3608,  5489,  6392
6850, -3611,  5573,  6377
6861, -3629,  5682,  6413
6870, -3663,  5807,  6488
6881, -3707,  5911,  6558
6890, -3732,  5915,  6600
6900, -3736,  5929,  6576
6911, -3700,  5969,  6500
6920, -3656,  6037,  6421
6931, -3611,  6104,  6342
6940, -3565,  6126,  6281
6951, -3529,  6126,  6225
6960, -3480,  6061,  6200
6970, -3465,  5965,  6183
6981, -3446,  5863,  6186
6990, -3466,  5717,  6246
7000, -3519,  5555,  6329
7011, -3564,  5378,  6378
7020, -3590,  5257,  6383
7031, -3638,  5210,  6405
7040, -3714,  5150,  6480
7051, -3826,  5079,  6589
7060, -3941,  5095,  6677
7070, -4044,  5118,  6753
7081, -4159,  5116,  6819
7090, -4223,  5103,  6842
7101, -4258,  5075,  6829
7110, -4294,  5053,  6790
7120, -4312,  5026,  6737
7131, -4343,  4996,  6684
7140, -4346,  5010,  6594
7151, -4326,  5049,  6473
7160, -4304,  5075,  6339
7170, -4257,  5083,  6184
7181, -4206,  5151,  6059
7190, -4152,  5267,  5977
7201, -4119,  5341,  5999
7210, -4127,  5423,  6098
7219, -4127,  5492,  6216
7230, -4130,  5578,  6322
7240, -4128,  5638,  6378
7251, -4138,  5594,  6387
7260, -4167,  5519,  6352
7270, -4187,  5412,  6258
7281, -4207,  5277,  6164
7290, -4235,  5231,  6065
7299, -4235,  5199,  5981
7310, -4218,  5167,  5927
7319, -4205,  5148,  5887
7331, -4198,  5133,  5879
7340, -4176,  5126,  5888
7349, -4149,  5100,  5898
7360, -4106,  5103,  5889
7370, -4032,  5107,  5870
7381, -3961,  5098,  5846
7390, -3877,  5158,  5825
7399, -3836,  5278,  5832
7410, -3843,  5349,  5875
7420, -3873,  5375,  5962
7430, -3930,  5321,  6046
7440, -3971,  5185,  6128
7449, -4016,  5059,  6197
7460, -4033,  4977,  6245
7470, -4036,  4965,  6269
7481, -4042,  4947,  6245
7490, -4041,  4839,  6202
7499, -4062,  4769,  6140
7510, -4064,  4764,  6062
7519, -4055,  4783,  5925
7530, -4002,  4715,  5772
7540, -3941,  4638,  5652
7550, -3877,  4570,  5597
7561, -3831,  4526,  5618
7570, -3809,  4475,  5611
7579, -3709,  4382,  5531
7590, -3586,  4203,  5430
7600, -3506,  3970,  5414
7611, -3495,  3771,  5464
7620, -3483,  3670,  5566
7629, -3513,  3594,  5683
7640, -3514,  3493,  5789
7649, -3489,  3329,  5921
7660, -3507,  3282,  6083
7670, -3505,  3380,  6232
7679, -3464,  3561,  6336
7690, -3427,  3717,  6417
7699, -3421,  3832,  6535
7710, -3469,  3964,  6645
7719, -3504,  4022,  6692
7730, -3537,  4041,  6719
7740, -3565,  4097,  6726
7749, -3546,  4125,  6715
7760, -3521,  4164,  6695
7770, -3520,  4246,  6688
7779, -3520,  4326,  6717
7790, -3530,  4405,  6750
7800, -3559,  4474,  6750
7809, -3560,  4470,  6736
7820, -3521,  4455,  6692
7829, -3410,  4427,  6586
7840, -3292,  4354,  6463
7850, -3198,  4261,  6350
7859, -3139,  4093,  6286
7870, -3137,  3940,  6275
7879, -3174,  3847,  6312
7890, -3261,  3769,  6410
7900, -3372,  3664,  6519
7909, -3489,  3585,  6570
7920, -3568,  3516,  6523
7929, -3597,  3466,  6432
7940, -3647,  3471,  6363
7950, -3750,  3512,  6369
7959, -3851,  3569,  6407
7970, -3960,  3654,  6439
7980, -4054,  3784,  6449
7989, -4106,  3904,  6442
8000, -4134,  4027,  6408
8009, -4149,  4125,  6337
8019, -4170,  4186,  6295
8030, -4234,  4244,  6276
8039, -4269,  4330,  6227
8050, -4285,  4435,  6173
8059, -4311,  4566,  6160
8069, -4356,  4690,  6188
8079, -4405,  4721,  6248
8089, -4463,  4712,  6339
8100, -4538,  4672,  6426
8109, -4592,  4631,  6469
8118, -4622,  4592,  6481
8129, -4613,  4575,  6467
8139, -4588,  4595,  6412
8150, -4531,  4656,  6341
8159, -4484,  4696,  6287
8170, -4466,  4763,  6299
8179, -4493,  4838,  6363
8189, -4522,  4825,  6425
8200, -4535,  4772,  6434
8209, -4516,  4660,  6406
8220, -4473,  4535,  6386
8229, -4439,  4428,  6392
8238, -4379,  4370,  6408
8249, -4309,  4360,  6457
8259, -4225,  4394,  6501
8270, -4117,  4419,  6502
8279, -3966,  4422,  6475
8289, -3810,  4434,  6419
8299, -3645,  4433,  6348
8309, -3481,  4433,  6266
8320, -3335,  4430,  6204
8329, -3217,  4451,  6207
8338, -3154,  4515,  6282
8349, -3117,  4546,  6404
8359, -3107,  4548,  6587
8370, -3085,  4553,  6770
8379, -3017,  4520,  6894
8390, -2915,  4523,  6949
8399, -2767,  4566,  6902
8408, -2598,  4588,  6786
8419, -2436,  4584,  6642
8429, -2283,  4587,  6513
8440, -2146,  4592,  6427
8449, -2081,  4536,  6400
8458, -2099,  4467,  6461
8469, -2242,  4372,  6653
8479, -2496,  4274,  6988
8488, -2743,  4260,  7307
8499, -2858,  4346,  7435
8508, -2825,  4443,  7324
8519, -2654,  4520,  7019
8529, -2466,  4570,  6705
8538, -2368,  4645,  6537
8549, -2402,  4666,  6495
8558, -2499,  4541,  6563
8570, -2795,  4437,  6865
8579, -3223,  4406,  7469
8588, -3771,  4636,  8084
8599, -4137,  4992,  8392
8609, -4130,  5252,  8264
8618, -3934,  5327,  7739
8629, -3607,  5246,  7003
8638, -3276,  5107,  6245
8649, -2998,  4951,  5604
8659, -2903,  4808,  5191
8668, -3040,  4682,  5187
8679, -3478,  4568,  5721
8688, -4160,  4686,  6542
8699, -4812,  5047,  7210
8709, -5095,  5276,  7368
8718, -5018,  5193,  6941
8729, -4651,  4992,  6131
8738, -4127,  4891,  5184
8749, -3596,  4950,  4330
8758, -3303,  5027,  3746
8768, -3429,  4960,  3724
8779, -3891,  4895,  4266
8788, -4491,  4925,  4977
8799, -5000,  4856,  5546
8808, -5213,  4686,  5698
8818, -5126,  4638,  5412
8829, -4897,  4726,  4898
8838, -4597,  4866,  4338
8849, -4316,  5032,  3826
8858, -4236,  5065,  3556
8869, -4547,  4932,  3833
8879, -5122,  4659,  4562
8888, -5827,  4381,  5399
8899, -6258,  4095,  5925
8908, -5735,  4102,  5449
8919, -5369,  4131,  5097
8929, -5027,  3854,  5054
8938, -6079,  3751,  4572
8949, -6819,  3932,  4633
8958, -7334,  4119,  5082
8969, -8113,  4472,  5355
8978, -8471,  4722,  5331
8988, -8655,  4673,  5334
8999, -8988,  4669,  5300
9008, -9263,  4857,  5223
9019, -9575,  5017,  5425
9028, -9766,  5079,  5640
9038, -9877,  5211,  5752
9049, -9666,  5326,  5572
9058, -9356,  5212,  5347
9069, -9163,  5134,  5283
9078, -9001,  5182,  5168
9089, -8803,  5251,  5035
9098, -8504,  5225,  4871
9108, -8051,  5180,  4569
9119, -7636,  5165,  4423
9128, -7315,  5209,  4347
9139, -7079,  5300,  4346
9148, -6971,  5372,  4468
9159, -7013,  5449,  4667
9168, -6986,  5475,  4819
9178, -6965,  5462,  5008
9189, -6935,  5519,  5076
9198, -6820,  5534,  5111
9209, -6729,  5539,  5155
9218, -6660,  5545,  5200
9227, -6599,  5498,  5245
9238, -6516,  5427,  5277
9248, -6486,  5330,  5273
9259, -6563,  5270,  5391
9268, -6698,  5190,  5564
9279, -6784,  5191,  5698
9288, -6800,  5234,  5713
9298, -6755,  5219,  5657
9309, -6711,  5140,  5576
9318, -6698,  5146,  5534
9329, -6713,  5229,  5509
9338, -6812,  5261,  5594
9347, -6913,  5173,  5653
9358, -6959,  5079,  5647
9368, -7109,  4978,  5797
9379, -7258,  4944,  5814
9388, -7307,  4898,  5784
9397, -7306,  4754,  5706
9408, -7321,  4609,  5635
9417, -7350,  4512,  5551
9428, -7398,  4386,  5494
9438, -7468,  4221,  5505
9449, -7537,  4049,  5510
9458, -7574,  3925,  5468
9467, -7587,  3820,  5353
9478, -7543,  3718,  5204
9488, -7492,  3630,  5071
9499, -7409,  3644,  4944
9508, -7381,  3729,  4859
9517, -7362,  3871,  4803
9528, -7387,  3886,  4807
9537, -7450,  3870,  4933
9548, -7434,  3819,  5040
9558, -7345,  3718,  5015
9569, -7255,  3750,  4946
9578, -7144,  3854,  4877
9587, -7051,  3994,  4832
9598, -6997,  4131,  4761
9607, -6895,  4250,  4685
9618, -6689,  4298,  4626
9628, -6494,  4269,  4580
9637, -6371,  4109,  4573
9648, -6316,  4007,  4633
9657, -6251,  4074,  4723
9668, -6190,  4227,  4844
9677, -6078,  4373,  4908
9688, -5922,  4427,  4981
9698, -5728,  4459,  5053
9707, -5488,  4475,  5068
9718, -5208,  4441,  4970
9727, -4921,  4295,  4792
9738, -4663,  4070,  4585
9748, -4396,  3869,  4444
9758, -4108,  3842,  4359
9768, -3876,  3839,  4422
9777, -3790,  3846,  4715
9788, -3809,  3855,  5228
9797, -3837,  3958,  5828
9808, -3810,  4265,  6302
9818, -3683,  4630,  6653
9827, -3487,  4954,  6840
9838, -3239,  5098,  6853
9847, -3044,  5111,  6810
9858, -2833,  5214,  6681
9867, -2565,  5298,  6460
9878, -2358,  5295,  6377
9888, -2273,  5400,  6529
9897, -2275,  5565,  6800
9908, -2292,  5736,  7075
9917, -2345,  5918,  7318
9928, -2392,  6064,  7463
9937, -2374,  6111,  7480
9947, -2345,  6040,  7417
9958, -2303,  5844,  7293
9967, -2281,  5552,  7163
9978, -2282,  5281,  7090
9987, -2306,  5089,  7105
9997, -2424,  4984,  7222
10008, -2630,  4996,  7404
10017, -2890,  5007,  7571
10028, -3145,  4968,  7674
10037, -3283,  4870,  7674
10047, -3296,  4761,  7538
10057, -3226,  4678,  7296
10067, -3184,  4582,  7075
10078, -3193,  4553,  6889
10087, -3272,  4515,  6757
10098, -3383,  4428,  6689
10107, -3488,  4321,  6613
10117, -3565,  4153,  6508
10128, -3629,  3939,  6409
10137, -3727,  3764,  6352
10148, -3851,  3621,  6373
10157, -4032,  3586,  6465
10166, -4201,  3679,  6584
10177, -4284,  3798,  6632
10187, -4285,  3903,  6585
10198, -4221,  3970,  6467
10207, -4128,  4012,  6330
10218, -4093,  4032,  6261
10227, -4133,  4041,  6274
10236, -4212,  4072,  6310
10247, -4252,  4076,  6317
10257, -4270,  4047,  6293
10268, -4290,  4019,  6257
10277, -4322,  3999,  6199
10288, -4287,  3992,  6089
10297, -4218,  4037,  5981
10306, -4163,  4214,  5936
10317, -4181,  4395,  5971
10327, -4244,  4514,  6059
10338, -4294,  4573,  6120
10347, -4289,  4603,  6112
10356, -4263,  4599,  6073
10367, -4224,  4575,  6032
10376, -4190,  4531,  6012
10387, -4198,  4518,  6048
10397, -4232,  4497,  6111
10408, -4275,  4423,  6183
10417, -4313,  4383,  6244
10426, -4336,  4334,  6286
10437, -4339,  4261,  6293
10446, -4347,  4212,  6319
10457, -4346,  4208,  6355
10467, -4332,  4234,  6368
10478, -4285,  4314,  6387
10487, -4230,  4448,  6434
10496, -4192,  4688,  6520
10507, -4133,  5020,  6632
10517, -4084,  5358,  6778
10527, -4029,  5738,  6918
10537, -3942,  6107,  6996
10546, -3830,  6447,  7013
10557, -3720,  6793,  6994
10566, -3605,  7156,  6921
10577, -3462,  7501,  6762
10586, -3274,  7720,  6496
10597, -3115,  7726,  6238
10607, -3083,  7552,  6099
10616, -3191,  7175,  6207
10627, -3486,  6661,  6572
10637, -3890,  6309,  7072
10646, -4331,  6357,  7474
10657, -4627,  6524,  7677
10666, -4654,  6499,  7709
10677, -4488,  6339,  7548
10687, -4195,  6151,  7241
10696, -3860,  6031,  6853
10707, -3534,  6060,  6471
10717, -3397,  6199,  6210
10726, -3462,  6252,  6193
10737, -3718,  6140,  6387
10746, -4004,  5833,  6647
10757, -4161,  5506,  6835
10766, -4187,  5405,  6895
10777, -4083,  5518,  6775
10787, -3870,  5760,  6435
10796, -3544,  6029,  5879
10807, -3171,  6250,  5201
10816, -2889,  6312,  4637
10827, -2843,  6191,  4312
10837, -3127,  5780,  4307
10846, -3628,  5193,  4571
10856, -4207,  4335,  4971
10867, -4756,  3180,  5319
10877, -5014,  1915,  5463
10886, -5072,   817,  5385
10897, -4974,    72,  5150
10907, -4747,  -290,  4799
10916, -4461,  -335,  4475
10926, -4305,  -139,  4386
10937, -4407,    93,  4624
10947, -4650,   341,  5121
10956, -4924,   629,  5693
10966, -5144,   967,  6156
10977, -5277,  1372,  6512
10987, -5359,  1792,  6717
10996, -5292,  2169,  6700
11007, -5106,  2367,  6492
11017, -4837,  2520,  6200
11026, -4569,  2726,  5953
11037, -4367,  2957,  5787
11047, -4279,  3113,  5758
11056, -4280,  3252,  5863
11065, -4321,  3514,  6019
11077, -4327,  3821,  6139
11086, -4303,  4124,  6231
11096, -4241,  4399,  6268
11107, -4116,  4611,  6232
11116, -3956,  4784,  6165
11126, -3803,  4922,  6097
11137, -3667,  5038,  6026
11146, -3568,  5127,  6018
11156, -3547,  5173,  6089
11167, -3584,  5195,  6236
11177, -3677,  5199,  6444
11186, -3794,  5228,  6661
11196, -3874,  5281,  6837
11207, -3913,  5308,  6921
11216, -3905,  5237,  6903
11226, -3831,  5119,  6794
11237, -3721,  5009,  6636
11246, -3590,  4922,  6476
11256, -3484,  4873,  6345
11267, -3447,  4835,  6297
11276, -3504,  4784,  6360
11286, -3632,  4745,  6483
11297, -3751,  4740,  6574
11306, -3808,  4780,  6586
11316, -3794,  4870,  6495
11325, -3688,  4944,  6339
11337, -3597,  4983,  6189
11346, -3535,  4990,  6095
11355, -3496,  4980,  6070
11366, -3515,  4972,  6112
11376, -3557,  4988,  6198
11387, -3572,  5010,  6260
11396, -3553,  5021,  6269
11405, -3514,  5024,  6235
11416, -3448,  5041,  6178
11426, -3371,  5082,  6115
11435, -3305,  5107,  6053
11446, -3269,  5132,  6034
11456, -3294,  5180,  6089
11465, -3386,  5204,  6214
11476, -3495,  5189,  6363
11486, -3585,  5129,  6449
11496, -3613,  5047,  6449
11506, -3598,  4965,  6395
11515, -3560,  4956,  6311
11526, -3527,  4979,  6233
11536, -3486,  4982,  6164
11545, -3484,  4984,  6119
11556, -3493,  4980,  6103
11565, -3533,  4968,  6136
11576, -3617,  4949,  6229
11586, -3701,  4907,  6322
11595, -3738,  4898,  6374
11606, -3719,  4909,  6351
11615, -3659,  4913,  6277
11626, -3578,  4918,  6189
11635, -3507,  4942,  6118
11645, -3465,  4959,  6080
11656, -3457,  4980,  6083
11665, -3498,  5005,  6134
11676, -3558,  5041,  6209
11686, -3640,  5078,  6294
11695, -3685,  5120,  6355
11706, -3675,  5134,  6343
11715, -3633,  5134,  6281
11726, -3590,  5125,  6241
11735, -3576,  5103,  6223
11746, -3570,  5075,  6227
11756, -3623,  5060,  6282
11765, -3686,  5080,  6368
11776, -3725,  5132,  6419
11785, -3713,  5174,  6416
11796, -3659,  5214,  6370
11806, -3588,  5230,  6280
11815, -3497,  5219,  6156
11826, -3436,  5205,  6064
11835, -3454,  5202,  6066
11845, -3576,  5199,  6176
11856, -3713,  5210,  6332
11865, -3755,  5208,  6402
11876, -3711,  5205,  6368
11885, -3628,  5198,  6277
11895, -3544,  5204,  6199
11906, -3491,  5227,  6152
11915, -3470,  5219,  6129
11926, -3458,  5206,  6114
11935, -3457,  5186,  6123
11946, -3494,  5153,  6166
11955, -3567,  5115,  6258
11965, -3623,  5089,  6337
11976, -3671,  5058,  6396
11985, -3687,  5052,  6409
11996, -3660,  5072,  6380
12005, -3601,  5091,  6326
12014, -3550,  5109,  6258
12025, -3511,  5127,  6208
12035, -3472,  5124,  6168
12046, -3463,  5109,  6160
12056, -3492,  5067,  6177
12065, -3543,  5026,  6210
12076, -3580,  4987,  6238
12085, -3582,  4970,  6222
12095, -3540,  4996,  6161
12106, -3501,  5027,  6099
12115, -3475,  5066,  6079
12126, -3479,  5130,  6092
12135, -3491,  5175,  6128
12145, -3513,  5213,  6178
12155, -3531,  5239,  6221
12165, -3570,  5233,  6259
12176, -3608,  5208,  6286
12185, -3631,  5181,  6269
12194, -3637,  5142,  6239
12205, -3641,  5098,  6204
12215, -3652,  5083,  6207
12226, -3651,  5091,  6218
12235, -3653,  5121,  6221
12246, -3648,  5152,  6222
12255, -3620,  5154,  6206
12264, -3600,  5169,  6200
12275, -3629,  5188,  6247
12285, -3697,  5199,  6328
12296, -3769,  5218,  6412
12305, -3808,  5232,  6454
12314, -3782,  5254,  6417
12325, -3720,  5264,  6339
12335, -3650,  5296,  6245
12345, -3592,  5322,  6169
12355, -3567,  5337,  6128
12364, -3569,  5363,  6127
12375, -3600,  5372,  6148
12385, -3662,  5378,  6197
12396, -3717,  5366,  6246
12405, -3714,  5313,  6240
12414, -3677,  5255,  6207
12425, -3634,  5222,  6160
12435, -3590,  5203,  6128
12445, -3577,  5226,  6125
12455, -3570,  5283,  6149
12465, -3599,  5342,  6192
12476, -3657,  5370,  6280
12485, -3706,  5349,  6349
12494, -3707,  5300,  6378
12505, -3683,  5241,  6363
12515, -3656,  5187,  6342
12526, -3641,  5147,  6318
12535, -3626,  5111,  6295
12544, -3609,  5105,  6263
12555, -3584,  5132,  6252
12565, -3589,  5165,  6263
12575, -3648,  5172,  6335
12585, -3716,  5162,  6410
12594, -3742,  5164,  6451
12605, -3765,  5191,  6461
12614, -3762,  5204,  6437
12624, -3727,  5186,  6373
12635, -3675,  5173,  6299
12644, -3618,  5171,  6235
12655, -3573,  5183,  6187
12664, -3556,  5198,  6161
12675, -3572,  5206,  6171
12685, -3604,  5194,  6201
12694, -3649,  5179,  6230
12705, -3657,  5161,  6214
12714, -3626,  5146,  6173
12725, -3588,  5126,  6112
12735, -3550,  5102,  6070
12744, -3538,  5089,  6072
12755, -3563,  5109,  6115
12765, -3600,  5143,  6160
12774, -3645,  5156,  6210
12785, -3683,  5164,  6250
12794, -3706,  5150,  6261
12805, -3713,  5135,  6248
12814, -3709,  5150,  6252
12824, -3723,  5178,  6283
12835, -3730,  5201,  6301
12844, -3727,  5199,  6307
12855, -3723,  5200,  6298
12864, -3711,  5235,  6298
12874, -3693,  5263,  6280
12885, -3682,  5263,  6252
12894, -3675,  5240,  6231
12905, -3673,  5209,  6220
12914, -3671,  5185,  6217
12925, -3691,  5161,  6218
12934, -3708,  5126,  6211
12944, -3716,  5110,  6203
12955, -3720,  5128,  6172
12964, -3689,  5167,  6132
12975, -3665,  5226,  6107
12984, -3684,  5272,  6139
12995, -3753,  5301,  6251
13004, -3815,  5341,  6385
13014, -3809,  5380,  6426
13025, -3750,  5399,  6388
13034, -3703,  5370,  6332
13043, -3666,  5309,  6283
13054, -3650,  5255,  6244
13064, -3628,  5204,  6222
13074, -3614,  5160,  6210
13085, -3634,  5117,  6222
13094, -3667,  5082,  6274
13105, -3688,  5072,  6308
13114, -3681,  5081,  6302
13123, -3672,  5081,  6291
13134, -3672,  5084,  6278
13144, -3642,  5067,  6229
13155, -3591,  5033,  6160
13164, -3554,  5033,  6128
13173, -3547,  5061,  6132
13184, -3541,  5115,  6154
13194, -3567,  5174,  6212
13205, -3624,  5225,  6278
13214, -3686,  5243,  6350
13223, -3752,  5265,  6411
13234, -3793,  5279,  6440
13244, -3783,  5253,  6429
13254, -3753,  5212,  6383
13264, -3721,  5159,  6350
13275, -3694,  5119,  6305
13284, -3682,  5090,  6276
13293, -3685,  5090,  6281
13304, -3719,  5122,  6315
13314, -3750,  5165,  6362
13323, -3768,  5209,  6392
13334, -3760,  5233,  6386
13344, -3721,  5215,  6334
13354, -3667,  5183,  6247
13364, -3608,  5157,  6159
13375, -3581,  5132,  6092
13384, -3607,  5127,  6109
13393, -3668,  5131,  6176
13404, -3714,  5128,  6225
13414, -3749,  5140,  6264
13425, -3758,  5136,  6260
13434, -3737,  5116,  6212
13443, -3699,  5088,  6151
13454, -3666,  5064,  6101
13464, -3639,  5049,  6073
13474, -3611,  5051,  6048
13484, -3605,  5083,  6056
13493, -3619,  5135,  6087
13504, -3663,  5186,  6148
13513, -3699,  5222,  6202
